// General information: 
//  MT Manager version: 2019.0.1 
//  XDA version: 2019.0.1 build 2740 rev 84096 built on 2019-01-30
// Device information: 
//  DeviceId: 00B4381A
//  ProductCode: MTW2-3A7G6
//  Firmware Version: 4.3.4
//  Hardware Version: 1.1.0
// Device settings: 
//  Filter Profile: human(46.1)
//  Option Flags: Orientation Smoother Disabled, AHS Disabled, ICC Disabled
// Coordinate system: ENU
PacketCounter,SampleTimeFine,Acc_X,Acc_Y,Acc_Z,FreeAcc_E,FreeAcc_N,FreeAcc_U,Gyr_X,Gyr_Y,Gyr_Z,Quat_q0,Quat_q1,Quat_q2,Quat_q3,Roll,Pitch,Yaw
22028,NaN,-5.578722,6.160859,5.501231,-0.032763,-0.066067,0.154079,-0.003233,-0.014054,-0.018956,0.221616,0.398443,-0.256330,-0.852305,48.070463,34.442356,-135.109197
22029,NaN,-5.567505,6.153738,5.481797,-0.024835,-0.074045,0.132643,-0.015282,-0.009976,-0.019675,0.221486,0.398420,-0.256269,-0.852368,48.056574,34.449607,-135.129215
22030,NaN,-5.539367,6.121161,5.478980,-0.044240,-0.068304,0.095178,-0.014442,-0.010016,-0.017648,0.221361,0.398397,-0.256212,-0.852429,48.043529,34.456452,-135.148423
22031,NaN,-5.499430,6.083170,5.455406,-0.054993,-0.070421,0.036280,-0.018291,-0.004327,-0.013121,0.221271,0.398384,-0.256145,-0.852478,48.031190,34.462858,-135.162828
22032,NaN,-5.476505,6.070482,5.415317,-0.038530,-0.086428,-0.006589,-0.018001,-0.001777,-0.010871,0.221192,0.398383,-0.256078,-0.852519,48.020290,34.469965,-135.174635
22033,NaN,-5.473286,6.015884,5.404037,-0.040467,-0.051034,-0.048104,-0.018495,-0.005507,-0.011706,0.221111,0.398363,-0.256011,-0.852570,48.007592,34.475307,-135.188556
22034,NaN,-5.518240,6.026854,5.434305,-0.035954,-0.027332,0.000751,-0.015368,-0.002091,-0.009870,0.221031,0.398363,-0.255957,-0.852607,47.998367,34.481864,-135.200065
22035,NaN,-5.526312,5.978169,5.443674,-0.046509,0.016049,-0.019333,-0.015814,-0.010571,-0.003036,0.220970,0.398315,-0.255929,-0.852654,47.988492,34.481747,-135.213021
22036,NaN,-5.505962,6.019382,5.416348,-0.028681,-0.035394,-0.020684,-0.008393,-0.015237,-0.000882,0.220897,0.398255,-0.255937,-0.852698,47.981786,34.479434,-135.227140
22037,NaN,-5.547381,6.021918,5.392783,0.015346,-0.019683,-0.008687,-0.003270,-0.010915,-0.001485,0.220822,0.398217,-0.255962,-0.852727,47.979149,34.478548,-135.238950
22038,NaN,-5.591407,6.034210,5.422523,0.019861,0.004009,0.040173,-0.001184,-0.008637,-0.000263,0.220746,0.398193,-0.255995,-0.852749,47.978666,34.478501,-135.249372
22039,NaN,-5.599866,6.106803,5.398756,0.056417,-0.053237,0.076301,-0.002427,-0.010954,0.000539,0.220676,0.398153,-0.256029,-0.852775,47.977122,34.476657,-135.260608
22040,NaN,-5.643808,6.119292,5.428369,0.060922,-0.029553,0.125165,0.003248,-0.009222,-0.000293,0.220590,0.398130,-0.256082,-0.852792,47.978999,34.476397,-135.271347
22041,NaN,-5.672065,6.150036,5.433181,0.079020,-0.035457,0.162643,0.001909,-0.012913,-0.003152,0.220493,0.398090,-0.256129,-0.852822,47.978260,34.475291,-135.285423
22042,NaN,-5.642597,6.195690,5.438268,0.065898,-0.086825,0.176724,-0.002913,-0.016253,-0.009029,0.220373,0.398043,-0.256146,-0.852870,47.972252,34.476053,-135.303857
22043,NaN,-5.647387,6.214373,5.402931,0.101097,-0.108648,0.171352,-0.013260,-0.026275,-0.011473,0.220250,0.397939,-0.256129,-0.852955,47.956949,34.473380,-135.328958
22044,NaN,-5.626095,6.211254,5.417404,0.078089,-0.116615,0.165348,-0.017255,-0.017210,-0.018272,0.220119,0.397883,-0.256067,-0.853033,47.940009,34.477699,-135.352189
22045,NaN,-5.593709,6.201906,5.411365,0.063743,-0.132466,0.137915,-0.031955,-0.012832,-0.019965,0.220018,0.397828,-0.255937,-0.853125,47.915423,34.483725,-135.373973
22046,NaN,-5.562135,6.115335,5.396693,0.043108,-0.091257,0.058927,-0.034518,0.001297,-0.020240,0.219936,0.397834,-0.255776,-0.853191,47.893468,34.495975,-135.388583
22047,NaN,-5.544217,6.077681,5.361075,0.054684,-0.085529,0.006038,-0.038229,0.014477,-0.016051,0.219898,0.397886,-0.255597,-0.853230,47.874577,34.511107,-135.394309
22048,NaN,-5.472748,6.031865,5.328836,0.030169,-0.103528,-0.080307,-0.038948,0.023576,-0.009680,0.219898,0.397969,-0.255415,-0.853246,47.859372,34.527425,-135.392519
22049,NaN,-5.508965,6.003154,5.288328,0.077921,-0.074123,-0.099738,-0.034779,0.028131,-0.007230,0.219907,0.398067,-0.255255,-0.853246,47.848496,34.543583,-135.387658
22050,NaN,-5.526440,5.982946,5.313336,0.063776,-0.044553,-0.088353,-0.025264,0.025747,-0.003863,0.219908,0.398167,-0.255140,-0.853234,47.843304,34.558265,-135.382039
22051,NaN,-5.514357,5.932917,5.333768,0.031025,-0.009022,-0.114457,-0.017976,0.015147,0.007352,0.219932,0.398213,-0.255091,-0.853220,47.842237,34.563671,-135.376347
22052,NaN,-5.568191,5.941243,5.329866,0.066453,0.014510,-0.080989,-0.000560,0.004148,0.008962,0.219911,0.398232,-0.255131,-0.853205,47.848278,34.564601,-135.375879
22053,NaN,-5.571630,5.918268,5.333547,0.060920,0.036206,-0.091028,0.008472,-0.001961,0.011483,0.219872,0.398228,-0.255227,-0.853188,47.858786,34.561637,-135.377830
22054,NaN,-5.644188,5.962645,5.366308,0.084099,0.053972,-0.004666,0.023483,-0.005344,0.006690,0.219781,0.398236,-0.255375,-0.853163,47.875223,34.559883,-135.383319
22055,NaN,-5.700831,6.025600,5.374281,0.120822,0.042120,0.070321,0.027192,-0.018523,0.002497,0.219650,0.398192,-0.255549,-0.853166,47.888786,34.554186,-135.397717
22056,NaN,-5.723108,6.037922,5.415362,0.103013,0.057964,0.113170,0.028651,-0.029036,-0.005506,0.219466,0.398120,-0.255721,-0.853195,47.898023,34.548516,-135.421124
22057,NaN,-5.762534,6.074876,5.440688,0.112481,0.059977,0.172089,0.023720,-0.033751,-0.015036,0.219250,0.398031,-0.255859,-0.853251,47.900514,34.544579,-135.451160
22058,NaN,-5.746349,6.093096,5.416564,0.125277,0.030171,0.160723,0.018077,-0.030929,-0.026931,0.218993,0.397967,-0.255945,-0.853321,47.897475,34.547291,-135.485535
22059,NaN,-5.764687,6.083573,5.495516,0.071720,0.067991,0.208910,0.018857,-0.026217,-0.032569,0.218718,0.397927,-0.256022,-0.853387,47.894965,34.553661,-135.520284
22060,NaN,-5.698279,6.101826,5.528928,0.008935,0.022754,0.200859,0.009328,-0.023843,-0.035923,0.218449,0.397894,-0.256046,-0.853464,47.886599,34.562914,-135.555202
22061,NaN,-5.622621,6.080835,5.491665,-0.010680,-0.016811,0.124536,0.008290,-0.006412,-0.043479,0.218170,0.397943,-0.256037,-0.853515,47.881273,34.581746,-135.584956
22062,NaN,-5.613430,6.073266,5.470711,-0.002771,-0.024894,0.103118,0.003983,0.001664,-0.043786,0.217912,0.398023,-0.255994,-0.853557,47.875209,34.604136,-135.610394
22063,NaN,-5.579681,6.087713,5.457948,-0.012308,-0.062418,0.085708,-0.002415,0.007455,-0.045312,0.217669,0.398122,-0.255916,-0.853596,47.867005,34.629024,-135.633305
22064,NaN,-5.546195,6.025232,5.436600,-0.027877,-0.042856,0.016743,-0.007310,0.011993,-0.041388,0.217457,0.398232,-0.255818,-0.853628,47.858109,34.654360,-135.652311
22065,NaN,-5.507101,6.019779,5.461057,-0.073146,-0.058457,0.004659,-0.011846,0.012762,-0.036280,0.217277,0.398329,-0.255713,-0.853660,47.848242,34.677248,-135.668609
22066,NaN,-5.467385,6.014595,5.485883,-0.118482,-0.074121,-0.007432,-0.016304,0.008780,-0.023516,0.217155,0.398392,-0.255616,-0.853691,47.837982,34.693752,-135.680937
22067,NaN,-5.453646,6.030757,5.461660,-0.105707,-0.103836,-0.018808,-0.016308,0.008778,-0.023512,0.217034,0.398453,-0.255522,-0.853721,47.828036,34.709907,-135.693116
22068,NaN,-5.487864,6.035531,5.470886,-0.092618,-0.088147,0.008643,-0.024154,0.006512,-0.010108,0.216981,0.398481,-0.255421,-0.853752,47.816173,34.719842,-135.700352
22069,NaN,-5.494492,6.019742,5.529903,-0.137597,-0.058239,0.035370,-0.024557,-0.000402,0.005434,0.216988,0.398456,-0.255359,-0.853780,47.806387,34.720105,-135.703889
22070,NaN,-5.490141,6.042559,5.527392,-0.133422,-0.080037,0.045407,-0.021360,-0.003298,0.006200,0.216987,0.398424,-0.255313,-0.853809,47.797585,34.719340,-135.708561
22071,NaN,-5.473909,6.060250,5.504016,-0.120567,-0.109734,0.034034,-0.024064,0.004895,0.014998,0.217039,0.398406,-0.255268,-0.853818,47.791949,34.717155,-135.705369
22072,NaN,-5.562376,6.084132,5.563438,-0.110885,-0.062294,0.131777,-0.024623,0.007482,0.015229,0.217096,0.398404,-0.255214,-0.853820,47.786855,34.716707,-135.700246
22073,NaN,-5.584509,6.128308,5.511447,-0.048532,-0.098208,0.142560,-0.028418,0.005271,0.009975,0.217139,0.398391,-0.255138,-0.853838,47.777393,34.716908,-135.698814
22074,NaN,-5.578749,6.107372,5.550064,-0.084957,-0.076346,0.147865,-0.031556,0.001844,0.008148,0.217173,0.398367,-0.255046,-0.853868,47.764780,34.717293,-135.699918
22075,NaN,-5.574488,6.129817,5.547911,-0.080735,-0.098101,0.157907,-0.028267,-0.001244,0.003846,0.217183,0.398336,-0.254964,-0.853905,47.751913,34.717789,-135.704284
22076,NaN,-5.554421,6.093579,5.512821,-0.069066,-0.092466,0.105032,-0.038621,-0.011294,0.001406,0.217186,0.398257,-0.254843,-0.853977,47.729593,34.715971,-135.715326
22077,NaN,-5.549826,6.115392,5.511728,-0.064877,-0.114196,0.115076,-0.036537,-0.009014,0.002632,0.217194,0.398186,-0.254734,-0.854041,47.709644,34.713986,-135.724674
22078,NaN,-5.556643,6.142589,5.531680,-0.069325,-0.128008,0.146528,-0.040755,-0.019716,0.004191,0.217202,0.398065,-0.254619,-0.854129,47.684375,34.707733,-135.738749
22079,NaN,-5.558867,6.116858,5.539474,-0.074795,-0.106269,0.136475,-0.044385,-0.025321,0.010252,0.217232,0.397905,-0.254513,-0.854228,47.657426,34.696252,-135.753378
22080,NaN,-5.484817,6.115863,5.469219,-0.058676,-0.167842,0.054822,-0.051777,-0.025445,0.015793,0.217304,0.397733,-0.254380,-0.854329,47.627274,34.682864,-135.764946
22081,NaN,-5.457542,6.059468,5.473179,-0.082659,-0.140156,0.007248,-0.060838,-0.017806,0.022038,0.217433,0.397572,-0.254215,-0.854421,47.595913,34.669249,-135.769668
22082,NaN,-5.401419,6.048928,5.481753,-0.119438,-0.163726,-0.026299,-0.070204,-0.012720,0.026040,0.217601,0.397421,-0.254009,-0.854509,47.561679,34.656435,-135.769855
22083,NaN,-5.413410,6.060865,5.561092,-0.168168,-0.147378,0.031846,-0.076043,-0.001848,0.029065,0.217801,0.397300,-0.253783,-0.854581,47.528569,34.645777,-135.764167
22084,NaN,-5.442283,6.097941,5.624600,-0.189806,-0.145155,0.106101,-0.086602,-0.003874,0.041532,0.218080,0.397149,-0.253529,-0.854656,47.491675,34.629840,-135.752506
22085,NaN,-5.407866,6.130118,5.725294,-0.278427,-0.166040,0.162144,-0.098317,0.010191,0.042854,0.218407,0.397040,-0.253215,-0.854716,47.452587,34.618188,-135.733023
22086,NaN,-5.375413,6.204932,5.785971,-0.326630,-0.230723,0.222939,-0.129210,0.024375,0.050279,0.218844,0.396952,-0.252765,-0.854778,47.401857,34.609524,-135.702735
22087,NaN,-5.376421,6.284591,5.856603,-0.360920,-0.279609,0.311212,-0.164983,0.041352,0.047911,0.219369,0.396894,-0.252137,-0.854856,47.334374,34.607572,-135.664653
22088,NaN,-5.432510,6.293396,5.915795,-0.365036,-0.247901,0.381473,-0.212526,0.059906,0.049830,0.220014,0.396867,-0.251291,-0.854952,47.246122,34.612965,-135.616379
22089,NaN,-5.526415,6.358890,5.998652,-0.354379,-0.235793,0.520722,-0.260643,0.088482,0.051824,0.220794,0.396901,-0.250218,-0.855050,47.139429,34.628064,-135.553243
22090,NaN,-5.506324,6.257884,5.959271,-0.343640,-0.194690,0.426335,-0.304745,0.120028,0.047698,0.221687,0.397030,-0.248906,-0.855142,47.015213,34.657958,-135.475324
22091,NaN,-5.618904,6.258301,5.964366,-0.272073,-0.147728,0.493436,-0.343096,0.149613,0.049134,0.222691,0.397235,-0.247408,-0.855220,46.878432,34.698331,-135.382724
22092,NaN,-5.695013,6.152902,5.987856,-0.255698,-0.037422,0.486777,-0.371933,0.156489,0.046916,0.223758,0.397444,-0.245766,-0.855319,46.726091,34.743159,-135.286753
22093,NaN,-5.768050,6.114611,5.968786,-0.194044,0.007482,0.494956,-0.390406,0.148396,0.052834,0.224872,0.397585,-0.244071,-0.855446,46.562842,34.781993,-135.192735
22094,NaN,-5.651670,5.987439,5.907044,-0.224512,0.001390,0.318132,-0.409908,0.139009,0.053085,0.226018,0.397666,-0.242295,-0.855611,46.385370,34.817812,-135.102865
22095,NaN,-5.573619,5.932910,5.778064,-0.164947,-0.054684,0.168316,-0.406955,0.139308,0.050245,0.227139,0.397744,-0.240534,-0.855775,46.208999,34.854213,-135.015417
22096,NaN,-5.616791,5.863258,5.755374,-0.121792,-0.003915,0.138974,-0.420651,0.131580,0.044578,0.228258,0.397788,-0.238702,-0.855970,46.020860,34.891055,-134.933601
22097,NaN,-5.566311,5.772089,5.474806,0.065483,-0.047632,-0.103531,-0.390204,0.147541,0.057044,0.229386,0.397907,-0.237011,-0.856083,45.857885,34.928139,-134.838920
22098,NaN,-5.330508,5.703348,5.408061,-0.022934,-0.165756,-0.317342,-0.366648,0.198026,0.061898,0.230549,0.398273,-0.235367,-0.856054,45.724602,34.984791,-134.715537
22099,NaN,-5.864181,5.665022,5.290437,0.375551,0.130907,-0.101271,-0.330948,0.184462,0.047929,0.231544,0.398623,-0.233883,-0.856029,45.604840,35.040674,-134.608760
22100,NaN,-5.860681,5.653263,5.332750,0.344010,0.131101,-0.085939,-0.305085,0.122366,0.052345,0.232453,0.398745,-0.232569,-0.856084,45.482519,35.071309,-134.528010
22101,NaN,-5.774895,5.655692,5.391527,0.258788,0.078684,-0.100239,-0.274077,0.056042,0.057472,0.233229,0.398600,-0.231492,-0.856232,45.361031,35.072152,-134.480386
22102,NaN,-5.764479,5.693117,5.399541,0.267639,0.035070,-0.080115,-0.245206,0.001299,0.067416,0.233941,0.398254,-0.230604,-0.856438,45.242594,35.048137,-134.452608
22103,NaN,-5.645106,5.759778,5.378647,0.244709,-0.098884,-0.122361,-0.221419,-0.014140,0.056400,0.234518,0.397865,-0.229839,-0.856667,45.131069,35.020780,-134.441587
22104,NaN,-5.744513,5.792782,5.381294,0.321082,-0.074016,-0.045114,-0.222521,-0.014160,0.044574,0.235069,0.397505,-0.229020,-0.856903,45.014800,34.999866,-134.432650
22105,NaN,-5.704211,5.875219,5.398731,0.317125,-0.168525,-0.010977,-0.240234,-0.015973,0.013509,0.235492,0.397129,-0.228093,-0.857208,44.879591,34.988804,-134.444458
22106,NaN,-5.662792,5.902284,5.401333,0.312133,-0.227847,-0.018343,-0.267332,-0.004189,-0.029638,0.235826,0.396843,-0.226923,-0.857559,44.719410,35.001940,-134.467319
22107,NaN,-5.820157,5.826187,5.568774,0.268698,-0.061356,0.124812,-0.296128,-0.004758,-0.061844,0.236079,0.396556,-0.225566,-0.857980,44.533636,35.027631,-134.506093
22108,NaN,-6.034600,5.715035,5.825065,0.181557,0.180735,0.333431,-0.296668,-0.026146,-0.070331,0.236271,0.396185,-0.224214,-0.858453,44.338718,35.047988,-134.560156
22109,NaN,-5.954226,5.653393,5.842454,0.126324,0.163375,0.262291,-0.319439,-0.041386,-0.067341,0.236505,0.395718,-0.222789,-0.858975,44.127578,35.060622,-134.619808
22110,NaN,-5.597843,5.612186,5.786633,-0.025031,-0.044760,0.001328,-0.311610,-0.028907,-0.055432,0.236785,0.395299,-0.221404,-0.859448,43.927501,35.073593,-134.667911
22111,NaN,-5.614730,5.509210,5.667924,0.070327,0.003182,-0.117486,-0.287695,0.005547,-0.041285,0.237119,0.395041,-0.220110,-0.859807,43.755096,35.094948,-134.691772
22112,NaN,-5.654692,5.473775,5.692601,0.078836,0.040519,-0.100038,-0.266320,0.025400,-0.033294,0.237464,0.394883,-0.218899,-0.860094,43.602428,35.121423,-134.702514
22113,NaN,-5.786612,5.449465,5.632616,0.207770,0.108060,-0.073435,-0.247665,0.013160,-0.029097,0.237780,0.394690,-0.217792,-0.860376,43.458527,35.141023,-134.716669
22114,NaN,-5.775784,5.431048,5.624740,0.215791,0.099905,-0.094813,-0.231291,-0.013893,-0.016311,0.238085,0.394385,-0.216811,-0.860680,43.319919,35.144408,-134.737843
22115,NaN,-5.592805,5.463569,5.678295,0.089827,-0.034944,-0.150194,-0.218592,-0.028048,-0.003774,0.238406,0.394021,-0.215927,-0.860980,43.188657,35.136818,-134.758983
22116,NaN,-5.523410,5.448023,5.816372,-0.048372,-0.049063,-0.116584,-0.208713,-0.023025,-0.000595,0.238724,0.393685,-0.215084,-0.861256,43.065086,35.130149,-134.776512
22117,NaN,-5.609863,5.470838,5.744099,0.076144,-0.040747,-0.097348,-0.199964,-0.021725,0.009419,0.239072,0.393356,-0.214298,-0.861506,42.950154,35.119977,-134.787828
22118,NaN,-5.589991,5.461867,5.822731,0.013641,-0.039996,-0.066797,-0.188462,-0.023305,0.025298,0.239461,0.393015,-0.213594,-0.861728,42.845778,35.103035,-134.792167
22119,NaN,-5.590953,5.504029,5.851999,0.013778,-0.075491,-0.025293,-0.188234,-0.012394,0.036626,0.239913,0.392709,-0.212901,-0.861913,42.748190,35.086159,-134.785015
22120,NaN,-5.486752,5.472414,5.782727,0.011400,-0.131054,-0.144473,-0.192657,-0.002055,0.036883,0.240382,0.392442,-0.212175,-0.862083,42.650679,35.073651,-134.773230
22121,NaN,-5.456774,5.480484,5.749810,0.032636,-0.168942,-0.177192,-0.196495,0.008275,0.034318,0.240862,0.392218,-0.211417,-0.862238,42.553340,35.066406,-134.757403
22122,NaN,-5.530477,5.482168,5.744336,0.090580,-0.138129,-0.137440,-0.210296,0.008763,0.013540,0.241276,0.392000,-0.210556,-0.862432,42.441768,35.067537,-134.752498
22123,NaN,-5.633094,5.463941,5.783826,0.126682,-0.069429,-0.064962,-0.232920,-0.014664,-0.015191,0.241589,0.391684,-0.209570,-0.862728,42.302652,35.069749,-134.773060
22124,NaN,-5.681274,5.461095,5.882413,0.091739,-0.037311,0.020591,-0.246513,-0.036519,-0.044097,0.241778,0.391286,-0.208495,-0.863116,42.140914,35.073878,-134.819346
22125,NaN,-5.642818,5.393594,6.012243,-0.033416,-0.000099,0.040138,-0.244655,-0.019560,-0.037220,0.242012,0.390957,-0.207421,-0.863458,41.987164,35.082372,-134.853671
22126,NaN,-5.590200,5.368046,6.029562,-0.070147,-0.023425,0.006496,-0.231239,-0.011068,-0.037194,0.242227,0.390680,-0.206393,-0.863769,41.843057,35.094507,-134.884490
22127,NaN,-5.646391,5.334847,5.984804,0.000357,0.013056,-0.006567,-0.214554,0.001913,-0.028929,0.242460,0.390471,-0.205439,-0.864026,41.714756,35.108869,-134.904529
22128,NaN,-5.647673,5.321113,5.995810,-0.000204,0.012987,-0.006567,-0.200756,0.000102,-0.016903,0.242714,0.390257,-0.204569,-0.864258,41.597160,35.117945,-134.919606
22129,NaN,-5.656768,5.309136,5.972957,0.030191,0.012497,-0.021820,-0.186682,-0.008068,-0.001475,0.243001,0.390009,-0.203800,-0.864470,41.490390,35.117526,-134.929966
22130,NaN,-5.630593,5.319907,5.994453,0.011879,-0.016925,-0.017892,-0.165710,-0.019423,0.014875,0.243303,0.389720,-0.203167,-0.864665,41.397241,35.106119,-134.937451
22131,NaN,-5.665374,5.293727,6.013416,0.020469,0.020457,-0.000433,-0.144180,-0.018168,0.026270,0.243616,0.389452,-0.202648,-0.864819,41.320526,35.090825,-134.937899
22132,NaN,-5.683506,5.290696,6.009132,0.042295,0.027973,0.005703,-0.120882,-0.017038,0.036639,0.243927,0.389205,-0.202248,-0.864936,41.260302,35.072200,-134.932792
22133,NaN,-5.677231,5.283925,5.961467,0.081292,0.019403,-0.030923,-0.104897,-0.011544,0.050110,0.244274,0.388989,-0.201937,-0.865008,41.215081,35.050755,-134.917599
22134,NaN,-5.677717,5.331839,5.986528,0.081368,-0.016134,0.010582,-0.090753,-0.004213,0.050950,0.244601,0.388820,-0.201679,-0.865052,41.179856,35.032265,-134.899010
22135,NaN,-5.636441,5.374177,6.035416,0.036646,-0.066779,0.039809,-0.079293,-0.006744,0.055515,0.244926,0.388651,-0.201484,-0.865082,41.152214,35.010869,-134.878736
22136,NaN,-5.569866,5.363189,6.077078,-0.031070,-0.089564,0.021390,-0.078338,-0.014847,0.069701,0.245299,0.388432,-0.201329,-0.865110,41.126956,34.980738,-134.855151
22137,NaN,-5.598029,5.417425,6.056021,0.022310,-0.117971,0.053791,-0.075207,-0.016927,0.084086,0.245730,0.388194,-0.201219,-0.865120,41.107584,34.944194,-134.824501
22138,NaN,-5.563152,5.387792,6.053328,0.003349,-0.111905,0.016208,-0.081426,-0.024516,0.102426,0.246241,0.387897,-0.201126,-0.865130,41.087857,34.897577,-134.788120
22139,NaN,-5.469663,5.421830,6.018972,-0.007043,-0.194787,-0.040099,-0.087162,-0.024492,0.115755,0.246823,0.387579,-0.201035,-0.865127,41.069141,34.845858,-134.744271
22140,NaN,-5.334866,5.448753,6.008935,-0.062205,-0.292829,-0.108700,-0.101804,0.003109,0.116470,0.247462,0.387362,-0.200847,-0.865086,41.049140,34.805911,-134.687838
22141,NaN,-5.297140,5.490559,5.970607,-0.036451,-0.352513,-0.131341,-0.123389,0.030399,0.109950,0.248145,0.387243,-0.200520,-0.865020,41.022228,34.780121,-134.621890
22142,NaN,-5.458999,5.444816,6.000300,0.026762,-0.217208,-0.045273,-0.128421,0.057358,0.102639,0.248830,0.387240,-0.200123,-0.864916,40.996950,34.768869,-134.547899
22143,NaN,-5.537930,5.410370,6.132114,-0.034565,-0.125257,0.062874,-0.144352,0.069036,0.097297,0.249536,0.387274,-0.199633,-0.864810,40.964289,34.764593,-134.470924
22144,NaN,-5.566583,5.362060,6.125224,-0.021905,-0.074228,0.048900,-0.149333,0.064712,0.090007,0.250214,0.387289,-0.199111,-0.864728,40.925142,34.761335,-134.400221
22145,NaN,-5.549235,5.330321,6.142564,-0.049452,-0.060018,0.032686,-0.146210,0.056997,0.085403,0.250861,0.387280,-0.198605,-0.864661,40.884699,34.756390,-134.335013
22146,NaN,-5.484254,5.341190,6.238141,-0.152198,-0.095863,0.060883,-0.137233,0.043664,0.082183,0.251460,0.387227,-0.198146,-0.864616,40.844644,34.747026,-134.278043
22147,NaN,-5.381352,5.320707,6.359373,-0.304319,-0.124943,0.066699,-0.139558,0.031055,0.087994,0.252079,0.387111,-0.197706,-0.864589,40.802029,34.729935,-134.223299
22148,NaN,-5.380498,5.367303,6.386258,-0.304367,-0.160431,0.108179,-0.143757,0.002183,0.097907,0.252717,0.386854,-0.197301,-0.864610,40.752173,34.696761,-134.176923
22149,NaN,-5.361443,5.386130,6.427505,-0.331375,-0.181588,0.133443,-0.159354,-0.007007,0.111495,0.253434,0.386523,-0.196873,-0.864646,40.695481,34.654169,-134.127674
22150,NaN,-5.299045,5.396990,6.495057,-0.403180,-0.217889,0.146384,-0.177827,-0.027324,0.127475,0.254237,0.386065,-0.196415,-0.864719,40.627331,34.597209,-134.079035
22151,NaN,-5.236739,5.381392,6.510108,-0.439977,-0.240986,0.112666,-0.202668,-0.025373,0.134409,0.255122,0.385578,-0.195862,-0.864801,40.547836,34.538435,-134.025338
22152,NaN,-5.205511,5.444776,6.555583,-0.457917,-0.305751,0.158040,-0.238078,-0.013568,0.139178,0.256104,0.385091,-0.195149,-0.864888,40.452182,34.483226,-133.964172
22153,NaN,-5.254305,5.446493,6.621010,-0.461927,-0.273933,0.228295,-0.278421,0.005072,0.140916,0.257193,0.384631,-0.194242,-0.864975,40.338984,34.435451,-133.893150
22154,NaN,-5.366838,5.457534,6.650641,-0.398739,-0.219604,0.317041,-0.310553,0.029397,0.137007,0.258346,0.384237,-0.193155,-0.865049,40.212085,34.400026,-133.813650
22155,NaN,-5.528277,5.426762,6.601660,-0.260253,-0.115319,0.361419,-0.324778,0.045098,0.143625,0.259572,0.383886,-0.191999,-0.865095,40.083286,34.369035,-133.723073
22156,NaN,-5.600415,5.354731,6.578779,-0.207252,-0.027475,0.349713,-0.313660,0.078706,0.165450,0.260900,0.383672,-0.190888,-0.865037,39.975562,34.345043,-133.606320
22157,NaN,-5.577238,5.316062,6.547988,-0.195175,-0.021853,0.296895,-0.293842,0.087646,0.187147,0.262295,0.383501,-0.189894,-0.864910,39.888208,34.317012,-133.473561
22158,NaN,-5.508155,5.319490,6.453533,-0.148231,-0.084104,0.200093,-0.300187,0.083282,0.180591,0.263665,0.383308,-0.188863,-0.864804,39.793815,34.289792,-133.346690
22159,NaN,-5.626406,5.261983,6.315876,0.020195,0.009497,0.148973,-0.296971,0.052959,0.174402,0.264976,0.382992,-0.187875,-0.864759,39.692070,34.251504,-133.236087
22160,NaN,-5.721870,5.201461,6.191827,0.166266,0.095506,0.091701,-0.281796,0.001703,0.164915,0.266166,0.382483,-0.187001,-0.864808,39.583078,34.194390,-133.153648
22161,NaN,-5.639486,5.153908,6.168512,0.142193,0.077988,0.005193,-0.270108,-0.063424,0.143895,0.267183,0.381727,-0.186225,-0.864996,39.458618,34.116141,-133.110595
22162,NaN,-5.555162,5.131536,6.060986,0.193242,0.029359,-0.123014,-0.270765,-0.132080,0.100827,0.267948,0.380712,-0.185453,-0.865373,39.303768,34.023383,-133.120972
22163,NaN,-5.571132,5.076371,6.071387,0.206077,0.080384,-0.136956,-0.264399,-0.222412,0.053318,0.268414,0.379358,-0.184741,-0.865975,39.116812,33.907556,-133.195424
22164,NaN,-5.831623,5.092124,6.250896,0.263281,0.243553,0.131277,-0.272487,-0.398103,0.006716,0.268526,0.377273,-0.184139,-0.866978,38.869125,33.730207,-133.370898
22165,NaN,-5.893557,5.067674,6.355376,0.268659,0.312660,0.219054,-0.278011,-0.625196,-0.018911,0.268330,0.374217,-0.183769,-0.868441,38.558290,33.459663,-133.655872
22166,NaN,-5.479888,5.019038,6.502863,-0.024505,0.124401,0.061044,-0.275787,-0.779759,-0.012457,0.268009,0.370482,-0.183624,-0.870171,38.217081,33.116203,-134.000764
22167,NaN,-5.365020,5.014377,6.510269,-0.017164,0.070870,0.000827,-0.264945,-0.910329,-0.014396,0.267537,0.366187,-0.183695,-0.872116,37.856009,32.712608,-134.397190
22168,NaN,-5.256526,4.990736,6.433615,0.056292,0.029742,-0.121190,-0.254871,-1.012639,-0.017596,0.266929,0.361454,-0.183936,-0.874224,37.481850,32.261739,-134.833273
22169,NaN,-4.893056,4.892588,6.273124,0.014796,-0.114156,-0.473654,-0.243242,-1.051164,-0.020718,0.266246,0.356561,-0.184269,-0.876369,37.111349,31.791882,-135.280706
22170,NaN,-4.598148,4.753123,6.322237,-0.157855,-0.156526,-0.666335,-0.237993,-1.026111,-0.034170,0.265508,0.351786,-0.184562,-0.878458,36.751180,31.335850,-135.719919
22171,NaN,-4.386648,4.653534,6.429913,-0.315610,-0.173237,-0.751138,-0.228439,-0.952863,-0.044057,0.264773,0.347346,-0.184778,-0.880399,36.414732,30.914501,-136.129504
22172,NaN,-4.008217,4.517388,6.558566,-0.612998,-0.258393,-0.921994,-0.217817,-0.845258,-0.043046,0.264114,0.343385,-0.184895,-0.882125,36.110755,30.540694,-136.492111
22173,NaN,-3.890088,4.383390,6.746458,-0.800285,-0.183417,-0.913969,-0.201901,-0.710666,-0.036886,0.263579,0.340028,-0.184913,-0.883580,35.848023,30.225551,-136.795021
22174,NaN,-4.131685,4.397426,7.051509,-0.799826,0.004903,-0.566502,-0.153927,-0.628120,-0.002683,0.263183,0.337062,-0.185090,-0.884797,35.640318,29.936405,-137.045629
22175,NaN,-4.327337,4.512861,7.128335,-0.636876,0.055519,-0.352456,-0.118131,-0.596362,0.057041,0.263021,0.334226,-0.185482,-0.885838,35.477393,29.641319,-137.249724
22176,NaN,-4.173066,4.732954,7.271760,-0.708197,-0.167672,-0.212484,-0.079279,-0.584186,0.117070,0.263066,0.331436,-0.186129,-0.886737,35.356250,29.331691,-137.415950
22177,NaN,-4.140332,4.882793,7.468575,-0.764616,-0.248842,-0.008769,-0.048968,-0.534858,0.192213,0.263441,0.328832,-0.186969,-0.887418,35.282792,29.019838,-137.521691
22178,NaN,-4.055537,5.028232,7.603961,-0.817689,-0.361811,0.124665,-0.032892,-0.452501,0.278220,0.264242,0.326531,-0.187910,-0.887831,35.256292,28.718125,-137.550181
22179,NaN,-4.001406,5.281431,7.795482,-0.856385,-0.530086,0.368654,-0.042810,-0.346820,0.350986,0.265484,0.324616,-0.188787,-0.887976,35.262138,28.441619,-137.499524
22180,NaN,-3.855193,5.419511,7.765958,-0.849370,-0.699818,0.352567,-0.094330,-0.221573,0.412819,0.267197,0.323128,-0.189367,-0.887882,35.275858,28.203402,-137.369547
22181,NaN,-3.723071,5.453077,7.816885,-0.930815,-0.772869,0.347883,-0.155473,-0.037862,0.459135,0.269391,0.322329,-0.189505,-0.887480,35.298297,28.035556,-137.145952
22182,NaN,-3.859870,5.492478,7.836496,-0.822846,-0.703647,0.449103,-0.223261,0.122312,0.484747,0.271954,0.322123,-0.189165,-0.886845,35.315574,27.934236,-136.849524
22183,NaN,-3.938448,5.444590,7.649343,-0.650784,-0.642107,0.327902,-0.284889,0.237117,0.498599,0.274788,0.322326,-0.188418,-0.886057,35.320886,27.881739,-136.502502
22184,NaN,-4.230361,5.340221,7.589255,-0.453185,-0.391377,0.368283,-0.319510,0.299061,0.501586,0.277742,0.322750,-0.187434,-0.885189,35.317453,27.857415,-136.131281
22185,NaN,-4.549031,5.268855,7.541252,-0.237276,-0.146891,0.446314,-0.329572,0.270947,0.518675,0.280764,0.323016,-0.186471,-0.884342,35.307552,27.814102,-135.761191
22186,NaN,-4.636811,5.152877,7.327103,-0.069793,-0.028304,0.273585,-0.317564,0.177299,0.554742,0.283831,0.322848,-0.185748,-0.883576,35.296330,27.715341,-135.407791
22187,NaN,-4.599034,5.062348,7.110858,0.034136,0.000760,0.053495,-0.284503,0.087888,0.577133,0.286861,0.322307,-0.185333,-0.882882,35.293414,27.567166,-135.075894
22188,NaN,-4.553102,4.972621,6.950284,0.098474,0.038571,-0.130080,-0.241841,0.019728,0.584871,0.289787,0.321517,-0.185214,-0.882239,35.303772,27.384765,-134.766339
22189,NaN,-4.495842,4.907099,6.844483,0.127642,0.063459,-0.267073,-0.179311,-0.004738,0.588223,0.292606,0.320702,-0.185411,-0.881564,35.345623,27.189462,-134.464293
22190,NaN,-4.581597,4.915313,6.670573,0.318165,0.118382,-0.350524,-0.109544,-0.026188,0.591026,0.295299,0.319891,-0.185949,-0.880847,35.422957,26.983159,-134.170009
22191,NaN,-4.649372,4.916902,6.635104,0.398443,0.191730,-0.345823,-0.039721,-0.049131,0.583148,0.297825,0.319085,-0.186815,-0.880105,35.533409,26.768116,-133.888866
22192,NaN,-4.680635,4.929392,6.771212,0.341851,0.262372,-0.227767,0.035567,-0.068566,0.582490,0.300204,0.318305,-0.188037,-0.879319,35.681915,26.543901,-133.616870
22193,NaN,-4.683777,4.989712,6.939192,0.263046,0.290221,-0.074426,0.117677,-0.096894,0.602343,0.302514,0.317501,-0.189694,-0.878461,35.875985,26.298922,-133.346019
22194,NaN,-4.485686,5.106879,6.944804,0.189587,0.128031,-0.097786,0.179327,-0.076845,0.628562,0.304854,0.316851,-0.191630,-0.877466,36.112703,26.053719,-133.056152
22195,NaN,-4.162742,5.297938,6.780019,0.180090,-0.193772,-0.257846,0.216973,-0.004047,0.641947,0.307263,0.316561,-0.193641,-0.876289,36.384390,25.836253,-132.733323
22196,NaN,-3.876449,5.519747,6.646515,0.180130,-0.513753,-0.358903,0.216586,0.093050,0.616845,0.309649,0.316717,-0.195457,-0.874988,36.664329,25.670874,-132.388692
22197,NaN,-3.631540,5.597351,6.348017,0.250213,-0.736955,-0.636091,0.174885,0.276965,0.500588,0.311773,0.317723,-0.196622,-0.873607,36.924222,25.628096,-132.033941
22198,NaN,-4.506776,5.676367,6.374867,0.767404,-0.181342,-0.192438,0.097892,0.444245,0.362329,0.313574,0.319474,-0.196967,-0.872245,37.137168,25.708442,-131.685902
22199,NaN,-5.538802,5.765870,6.597589,1.239079,0.492196,0.467104,0.056636,0.413027,0.269306,0.315005,0.321113,-0.197032,-0.871112,37.301739,25.805527,-131.395989
22200,NaN,-5.646949,5.660518,6.570658,1.248402,0.645826,0.440478,0.038481,0.301422,0.201648,0.316056,0.322302,-0.197083,-0.870280,37.422541,25.874884,-131.183415
22201,NaN,-5.964539,5.798646,6.646712,1.421369,0.778518,0.711208,0.037908,0.205538,0.146702,0.316777,0.323127,-0.197196,-0.869687,37.515200,25.919233,-131.035079
22202,NaN,-7.748796,5.901976,7.430807,1.977844,2.027801,2.106633,-0.026681,-0.129870,-0.001050,0.316626,0.322536,-0.197319,-0.869933,37.481219,25.862781,-131.091860
22203,NaN,-6.833509,5.689729,7.623955,1.242531,1.594211,1.724600,-0.016582,-0.464266,-0.084865,0.315765,0.320589,-0.197880,-0.870838,37.378796,25.683151,-131.319771
22204,NaN,-5.124750,5.685001,7.628930,0.255999,0.451274,0.981459,0.020394,-0.398991,-0.143158,0.314652,0.319040,-0.198404,-0.871690,37.296277,25.553341,-131.551757
22205,NaN,-6.061737,5.768565,7.576440,0.911445,1.018915,1.392422,0.044358,-0.287853,-0.206864,0.313334,0.318075,-0.198756,-0.872437,37.232771,25.495911,-131.772474
22206,NaN,-5.700081,5.781339,7.391268,0.842701,0.737600,1.109374,0.093603,-0.306368,-0.234724,0.311795,0.317133,-0.199306,-0.873206,37.188396,25.439631,-132.014583
22207,NaN,-4.475804,5.689335,7.255788,0.167640,-0.037177,0.435158,0.122828,-0.276573,-0.260398,0.310127,0.316391,-0.199896,-0.873933,37.160568,25.405596,-132.257775
22208,NaN,-4.401447,5.894945,7.270575,0.206135,-0.233322,0.525951,0.095782,-0.279228,-0.232417,0.308619,0.315566,-0.200415,-0.874646,37.122824,25.360650,-132.488080
22209,NaN,-3.588399,5.874610,6.976348,-0.087081,-0.801810,-0.045058,0.052203,-0.354682,-0.156738,0.307435,0.314268,-0.200979,-0.875401,37.064738,25.254789,-132.708438
22210,NaN,-2.937949,5.528293,6.616038,-0.369670,-1.029308,-0.770046,0.012801,-0.316019,-0.044680,0.306840,0.312964,-0.201486,-0.875960,37.014753,25.127854,-132.857438
22211,NaN,-2.847855,5.453849,6.659597,-0.468825,-1.014938,-0.815185,-0.012764,-0.220922,0.116374,0.307087,0.311874,-0.201988,-0.876147,37.000580,24.988689,-132.888278
22212,NaN,-2.515935,5.533146,6.783139,-0.708329,-1.255631,-0.819456,-0.022551,-0.120291,0.299296,0.308250,0.311025,-0.202576,-0.875904,37.035603,24.832586,-132.788938
22213,NaN,-2.146499,5.569914,7.106569,-1.124665,-1.454040,-0.715679,-0.014376,0.020310,0.463699,0.310264,0.310637,-0.203239,-0.875177,37.132260,24.683703,-132.553274
22214,NaN,-2.179203,5.707989,7.651487,-1.405410,-1.419981,-0.227087,0.009549,0.182593,0.587916,0.312944,0.310867,-0.203945,-0.873976,37.293356,24.565489,-132.194421
22215,NaN,-3.148028,5.772454,7.821805,-0.903144,-0.757846,0.337280,0.039476,0.268812,0.687081,0.316099,0.311416,-0.204801,-0.872444,37.505144,24.450769,-131.753308
22216,NaN,-4.118666,6.010364,7.305991,0.127761,-0.313594,0.499953,0.032796,0.195966,0.716570,0.319311,0.311602,-0.205784,-0.870975,37.706020,24.291411,-131.326833
22217,NaN,-4.860149,5.938603,7.554503,0.379086,0.324772,0.944137,-0.059256,0.013962,0.537060,0.321697,0.311031,-0.206376,-0.870161,37.787611,24.111405,-131.060063
22218,NaN,-5.029011,5.417142,7.218329,0.490216,0.786849,0.477169,-0.070987,0.029851,0.407987,0.323551,0.310641,-0.206689,-0.869538,37.837761,23.983849,-130.852154
22219,NaN,-4.628475,5.463180,7.318590,0.200531,0.507958,0.411432,-0.064796,0.252525,0.275519,0.325052,0.311365,-0.206463,-0.868773,37.899639,24.003229,-130.623898
22220,NaN,-5.016664,5.303630,7.116615,0.479405,0.855997,0.335170,-0.044097,0.388519,0.145592,0.326092,0.312846,-0.205902,-0.867984,37.968615,24.129777,-130.407760
22221,NaN,-5.766078,5.268186,7.039158,0.932797,1.381831,0.568620,-0.015350,0.358592,0.096520,0.326845,0.314294,-0.205438,-0.867287,38.040216,24.259711,-130.226689
22222,NaN,-5.516011,5.288268,6.840786,0.909630,1.160714,0.336884,0.020810,0.124951,0.074519,0.327202,0.314809,-0.205476,-0.866956,38.090925,24.292019,-130.147190
22223,NaN,-4.840116,5.166308,6.441467,0.724014,0.721843,-0.296139,0.079178,-0.038396,0.077869,0.327317,0.314709,-0.206041,-0.866815,38.149960,24.249301,-130.129009
22224,NaN,-4.438236,5.123176,6.105290,0.698129,0.435189,-0.727390,0.123781,-0.156120,0.079558,0.327244,0.314169,-0.206993,-0.866812,38.215860,24.153090,-130.156140
22225,NaN,-3.932600,5.165689,5.935360,0.538433,0.043830,-1.032806,0.141179,-0.212413,0.038169,0.326909,0.313456,-0.208049,-0.866944,38.274721,24.046130,-130.225286
22226,NaN,-4.146013,5.360733,6.033856,0.687964,0.087840,-0.765408,0.148555,-0.262681,-0.016781,0.326268,0.312594,-0.209131,-0.867236,38.318721,23.936260,-130.341414
22227,NaN,-4.340102,5.517396,6.253149,0.731379,0.164456,-0.441561,0.150346,-0.346871,-0.058257,0.325358,0.311412,-0.210294,-0.867722,38.342756,23.803236,-130.510255
22228,NaN,-4.289332,5.587105,6.371996,0.664237,0.117117,-0.338434,0.169045,-0.413445,-0.088663,0.324213,0.310002,-0.211597,-0.868338,38.361279,23.651282,-130.720091
22229,NaN,-4.551527,5.668316,6.575677,0.735337,0.295599,-0.042448,0.189483,-0.489396,-0.122708,0.322809,0.308331,-0.213058,-0.869099,38.373958,23.477265,-130.975520
22230,NaN,-4.446415,5.747466,6.663373,0.667231,0.202810,0.021850,0.205877,-0.544952,-0.169671,0.321111,0.306490,-0.214606,-0.869998,38.378952,23.295139,-131.275491
22231,NaN,-4.577141,5.804564,6.951497,0.599335,0.323869,0.311656,0.214855,-0.571223,-0.222280,0.319141,0.304604,-0.216153,-0.871001,38.376239,23.119843,-131.610606
22232,NaN,-4.294938,5.838754,7.374573,0.179972,0.203612,0.524041,0.250392,-0.579218,-0.260011,0.316938,0.302777,-0.217806,-0.872030,38.386279,22.954488,-131.967148
22233,NaN,-4.137649,5.770493,7.729876,-0.166711,0.235382,0.679522,0.316548,-0.517951,-0.250279,0.314742,0.301308,-0.219664,-0.872868,38.446540,22.813296,-132.294653
22234,NaN,-4.404235,5.789503,7.701019,0.036460,0.427560,0.772071,0.368265,-0.527985,-0.221375,0.312578,0.299841,-0.221803,-0.873609,38.540933,22.657782,-132.612159
22235,NaN,-4.137471,5.777622,7.505288,0.004441,0.250274,0.520083,0.408803,-0.569023,-0.195242,0.310420,0.298226,-0.224221,-0.874314,38.658481,22.475022,-132.932485
22236,NaN,-3.759536,5.780896,7.317899,-0.100186,-0.008011,0.241878,0.432268,-0.570051,-0.180453,0.308284,0.296621,-0.226761,-0.874961,38.792734,22.287222,-133.246379
22237,NaN,-3.512729,5.856750,7.096012,-0.074588,-0.236153,0.032754,0.433371,-0.547567,-0.162203,0.306250,0.295093,-0.229297,-0.875531,38.935417,22.103528,-133.542513
22238,NaN,-3.274083,5.883026,6.980319,-0.136877,-0.402495,-0.123848,0.410430,-0.527761,-0.151638,0.304312,0.293599,-0.231713,-0.876072,39.070312,21.925575,-133.826277
22239,NaN,-3.208296,5.891940,6.936992,-0.142866,-0.425968,-0.172770,0.377347,-0.525758,-0.130637,0.302516,0.292037,-0.234010,-0.876606,39.191354,21.741436,-134.098958
22240,NaN,-3.144632,5.851155,7.005611,-0.236709,-0.387605,-0.169196,0.327077,-0.543563,-0.106311,0.300874,0.290288,-0.236146,-0.877179,39.285897,21.541127,-134.367289
22241,NaN,-3.421927,5.879518,7.187324,-0.147374,-0.144478,0.081412,0.258571,-0.608428,-0.099266,0.299284,0.288141,-0.238088,-0.877905,39.334434,21.309742,-134.657104
22242,NaN,-3.273418,5.886994,7.334496,-0.313071,-0.176937,0.139062,0.216535,-0.626741,-0.070973,0.297852,0.285813,-0.239909,-0.878657,39.362142,21.060219,-134.940623
22243,NaN,-3.447856,5.815452,7.261093,-0.151102,0.004153,0.107376,0.186277,-0.611669,-0.074385,0.296465,0.283508,-0.241569,-0.879418,39.375567,20.818630,-135.219200
22244,NaN,-4.257565,5.946742,7.480230,0.327901,0.530886,0.630248,0.152876,-0.633938,-0.088610,0.295030,0.281069,-0.243091,-0.880264,39.365414,20.572432,-135.513044
22245,NaN,-4.416891,5.955772,7.695661,0.340391,0.714894,0.844524,0.124384,-0.695823,-0.081752,0.293589,0.278304,-0.244587,-0.881209,39.333420,20.296152,-135.826725
22246,NaN,-3.694341,5.769073,7.458655,-0.026604,0.341265,0.308802,0.141654,-0.642812,-0.079299,0.292194,0.275792,-0.246080,-0.882046,39.320114,20.042430,-136.118401
22247,NaN,-3.567047,5.820866,7.413670,-0.033710,0.236921,0.262601,0.153066,-0.550459,-0.104286,0.290786,0.273732,-0.247453,-0.882769,39.322999,19.838632,-136.385447
22248,NaN,-3.689527,5.877167,7.371942,0.122652,0.287923,0.306660,0.146471,-0.519958,-0.139744,0.289263,0.271838,-0.248701,-0.883504,39.321125,19.661287,-136.657400
22249,NaN,-3.649775,5.844701,7.237466,0.191896,0.267972,0.174984,0.154141,-0.552021,-0.160284,0.287599,0.269837,-0.250001,-0.884293,39.317437,19.477126,-136.950768
22250,NaN,-3.358997,5.830225,7.092836,0.101900,0.070807,-0.036839,0.161233,-0.607681,-0.178373,0.285771,0.267620,-0.251383,-0.885167,39.308691,19.274876,-137.273970
22251,NaN,-3.166991,5.716750,6.910384,0.066807,-0.003682,-0.301648,0.151867,-0.658934,-0.216417,0.283722,0.265208,-0.252745,-0.886164,39.283758,19.063574,-137.633972
22252,NaN,-3.157765,5.700495,6.893813,0.092939,0.017386,-0.326764,0.170219,-0.687265,-0.252692,0.281445,0.262738,-0.254175,-0.887216,39.261463,18.852764,-138.021579
22253,NaN,-2.979621,5.706313,6.865090,0.014242,-0.086859,-0.401961,0.209648,-0.708482,-0.278297,0.278974,0.260258,-0.255774,-0.888267,39.257066,18.641705,-138.428488
22254,NaN,-2.982584,5.701027,6.891803,0.023108,-0.049341,-0.384464,0.252904,-0.724449,-0.296856,0.276337,0.257787,-0.257557,-0.889296,39.274077,18.430371,-138.849984
22255,NaN,-3.049755,5.745537,6.918969,0.094856,-0.003671,-0.316625,0.298420,-0.758352,-0.289705,0.273627,0.255214,-0.259596,-0.890283,39.316067,18.201595,-139.280395
22256,NaN,-2.919259,5.759669,6.971325,-0.000132,-0.045960,-0.310426,0.328847,-0.807167,-0.271963,0.270886,0.252437,-0.261853,-0.891252,39.373868,17.945120,-139.721078
22257,NaN,-2.467997,5.865158,7.103003,-0.343872,-0.319502,-0.287812,0.331515,-0.797587,-0.264261,0.268185,0.249692,-0.264114,-0.892174,39.437594,17.690546,-140.153849
22258,NaN,-2.157053,6.043027,7.235286,-0.566061,-0.554964,-0.174644,0.314128,-0.734073,-0.253849,0.265628,0.247188,-0.266219,-0.893010,39.501772,17.460716,-140.557559
22259,NaN,-2.126444,6.207858,7.407917,-0.615129,-0.597868,0.046347,0.278948,-0.657106,-0.259357,0.263191,0.244984,-0.268055,-0.893790,39.555524,17.267310,-140.933876
22260,NaN,-2.166507,6.298687,7.453222,-0.566204,-0.594768,0.149407,0.227877,-0.566707,-0.264198,0.260910,0.243120,-0.269533,-0.894523,39.590475,17.115868,-141.278009
22261,NaN,-2.633096,6.341164,7.575456,-0.261615,-0.281172,0.404139,0.197507,-0.490488,-0.251720,0.258825,0.241539,-0.270789,-0.895177,39.619291,16.993691,-141.586751
22262,NaN,-3.112551,6.390046,7.547597,0.143938,-0.024420,0.553871,0.170778,-0.485862,-0.242257,0.256815,0.239928,-0.271927,-0.895844,39.635054,16.870219,-141.889553
22263,NaN,-3.137261,6.436375,7.359389,0.301709,-0.096474,0.450331,0.160740,-0.501815,-0.222095,0.254887,0.238204,-0.273064,-0.896508,39.646898,16.732436,-142.188611
22264,NaN,-2.724519,6.436536,7.009047,0.203368,-0.453680,0.073238,0.147788,-0.456129,-0.211666,0.253079,0.236651,-0.274094,-0.897117,39.658205,16.611024,-142.465620
22265,NaN,-2.737000,6.356167,6.693529,0.373899,-0.495136,-0.204857,0.136520,-0.340832,-0.211815,0.251442,0.235602,-0.274927,-0.897599,39.676297,16.540619,-142.698244
22266,NaN,-3.214365,6.379595,6.577475,0.814122,-0.271579,-0.140149,0.148782,-0.276252,-0.210015,0.249884,0.234852,-0.275734,-0.897983,39.708655,16.498093,-142.905706
22267,NaN,-3.186343,6.389218,6.478488,0.852032,-0.326076,-0.215114,0.166909,-0.274767,-0.207729,0.248319,0.234129,-0.276623,-0.898332,39.752276,16.455473,-143.111216
22268,NaN,-2.962669,6.373043,6.391924,0.723140,-0.468341,-0.351847,0.189636,-0.275728,-0.202292,0.246747,0.233421,-0.277620,-0.898642,39.809408,16.410653,-143.314908
22269,NaN,-2.675461,6.378384,6.385697,0.505064,-0.629245,-0.433564,0.206685,-0.265748,-0.195958,0.245198,0.232770,-0.278688,-0.898904,39.878626,16.368105,-143.511543
22270,NaN,-2.572106,6.387260,6.395995,0.418575,-0.679594,-0.448686,0.209440,-0.251436,-0.193246,0.243676,0.232180,-0.279752,-0.899140,39.951169,16.331091,-143.701806
22271,NaN,-2.559604,6.375364,6.445028,0.373839,-0.648143,-0.422513,0.195969,-0.241070,-0.190053,0.242199,0.231617,-0.280747,-0.899374,40.017925,16.297666,-143.886294
22272,NaN,-2.561432,6.326471,6.398910,0.382041,-0.620698,-0.485309,0.173286,-0.238183,-0.203611,0.240688,0.231056,-0.281618,-0.899652,40.070055,16.270698,-144.076227
22273,NaN,-2.642742,6.262771,6.469798,0.383633,-0.493921,-0.449272,0.152579,-0.227325,-0.212847,0.239176,0.230533,-0.282374,-0.899952,40.110700,16.252005,-144.265855
22274,NaN,-2.761351,6.188686,6.588442,0.386294,-0.321664,-0.374479,0.135109,-0.231266,-0.222454,0.237633,0.229982,-0.283041,-0.900292,40.139423,16.235283,-144.461728
22275,NaN,-2.814249,6.172194,6.708094,0.356426,-0.229198,-0.281951,0.112471,-0.242737,-0.233655,0.236051,0.229370,-0.283608,-0.900686,40.152911,16.217721,-144.666751
22276,NaN,-2.849692,6.158047,6.881989,0.286834,-0.127436,-0.153208,0.091865,-0.269165,-0.235598,0.234443,0.228614,-0.284109,-0.901140,40.151257,16.189347,-144.883167
22277,NaN,-2.792068,6.131930,6.973316,0.188583,-0.102009,-0.118494,0.071684,-0.271538,-0.224699,0.232905,0.227810,-0.284535,-0.901608,40.139639,16.155860,-145.095130
22278,NaN,-2.852814,6.097616,7.149468,0.137336,0.028817,0.006409,0.049257,-0.269322,-0.204743,0.231483,0.226959,-0.284877,-0.902081,40.117735,16.115938,-145.297448
22279,NaN,-2.738958,6.143579,7.312072,-0.019444,-0.000743,0.122677,0.024853,-0.250633,-0.195562,0.230158,0.226151,-0.285099,-0.902553,40.085481,16.080713,-145.487976
22280,NaN,-2.790480,6.158818,7.506173,-0.071123,0.094765,0.289114,0.012711,-0.212405,-0.164326,0.229040,0.225456,-0.285255,-0.902962,40.054057,16.050641,-145.649893
22281,NaN,-2.845972,6.183832,7.597149,-0.061651,0.142640,0.386913,0.000699,-0.174384,-0.132890,0.228133,0.224875,-0.285350,-0.903306,40.024173,16.025560,-145.782484
22282,NaN,-2.806390,6.216649,7.725387,-0.146531,0.148224,0.490745,-0.008254,-0.131564,-0.109015,0.227402,0.224441,-0.285380,-0.903589,39.996403,16.010427,-145.888094
22283,NaN,-2.958280,6.162171,7.817554,-0.086100,0.304931,0.566981,-0.024205,-0.090572,-0.101403,0.226785,0.224164,-0.285302,-0.903837,39.965144,16.010427,-145.974165
22284,NaN,-3.079955,6.158571,7.804115,0.021308,0.363026,0.588567,-0.043719,-0.076288,-0.061825,0.226386,0.223873,-0.285161,-0.904054,39.928862,16.002103,-146.037032
22285,NaN,-2.840285,6.071214,7.658168,-0.112342,0.232796,0.361180,-0.062343,-0.031963,-0.046250,0.226144,0.223739,-0.284906,-0.904228,39.888874,16.007479,-146.075475
22286,NaN,-2.768076,6.017635,7.481719,-0.088752,0.152684,0.178264,-0.087012,0.012846,-0.044600,0.225998,0.223777,-0.284489,-0.904387,39.839349,16.031941,-146.096395
22287,NaN,-2.776265,6.019879,7.383665,-0.028363,0.105373,0.109670,-0.097311,0.031039,-0.032042,0.225949,0.223868,-0.284020,-0.904524,39.787742,16.059778,-146.104308
22288,NaN,-2.927642,5.957434,7.302746,0.119358,0.189367,0.053522,-0.100900,0.018153,-0.030125,0.225892,0.223893,-0.283549,-0.904679,39.732624,16.081236,-146.116620
22289,NaN,-2.998100,5.931177,7.252510,0.199201,0.216531,0.019901,-0.110770,-0.037334,-0.031518,0.225763,0.223659,-0.283097,-0.904911,39.666135,16.078713,-146.150403
22290,NaN,-2.474849,5.677369,7.155820,-0.233976,0.072228,-0.352076,-0.139254,0.011965,-0.080620,0.225511,0.223684,-0.282404,-0.905184,39.581938,16.115863,-146.188318
22291,NaN,-4.581784,5.996726,7.553065,1.332821,1.111357,0.722525,-0.139373,-0.078227,-0.078401,0.225144,0.223299,-0.281815,-0.905554,39.488742,16.112289,-146.259186
22292,NaN,-1.972996,5.926673,7.395302,-0.674528,-0.301993,-0.160618,-0.086853,-0.174824,-0.028178,0.224808,0.222464,-0.281628,-0.905901,39.421632,16.047603,-146.343846
22293,NaN,-2.361361,5.914376,6.922434,-0.105372,-0.284751,-0.411424,-0.099606,-0.093025,-0.057000,0.224472,0.222026,-0.281260,-0.906206,39.352500,16.029526,-146.410432
22294,NaN,-3.009407,5.688198,7.030404,0.297516,0.257099,-0.289870,-0.178175,0.007987,-0.163558,0.223880,0.222106,-0.280302,-0.906630,39.234961,16.094796,-146.488335
22295,NaN,-4.158022,5.555923,7.201458,1.093634,1.013370,0.076470,-0.150673,-0.059186,-0.177761,0.223101,0.221933,-0.279530,-0.907102,39.124541,16.135229,-146.597959
22296,NaN,-3.357540,5.628698,7.508822,0.318959,0.647934,0.127944,-0.050316,-0.194124,-0.136386,0.222207,0.221201,-0.279407,-0.907538,39.062506,16.100545,-146.739553
22297,NaN,-2.607354,5.888164,7.372239,-0.123462,0.003542,-0.024767,0.003046,-0.320583,-0.069890,0.221381,0.219862,-0.279742,-0.907962,39.026931,15.985516,-146.897470
22298,NaN,-1.763788,5.985027,7.097770,-0.615388,-0.618320,-0.402651,0.000035,-0.254437,-0.051758,0.220731,0.218793,-0.280007,-0.908297,38.998765,15.893266,-147.022327
22299,NaN,-1.918991,6.185431,6.844036,-0.289873,-0.787455,-0.427657,-0.030374,-0.178616,-0.037409,0.220286,0.218016,-0.280068,-0.908573,38.963264,15.829565,-147.111741
22300,NaN,-1.414920,6.127308,6.548569,-0.548785,-1.127234,-0.820589,-0.033799,-0.163610,0.010608,0.220083,0.217234,-0.280146,-0.908785,38.933187,15.755190,-147.173523
22301,NaN,-1.595345,6.172433,6.393484,-0.300077,-1.125922,-0.859312,0.007179,-0.113673,0.064639,0.220152,0.216650,-0.280417,-0.908825,38.938840,15.683617,-147.191251
22302,NaN,-2.385055,6.517199,6.779991,0.243293,-0.801962,-0.146856,0.051563,-0.120197,0.070709,0.220189,0.216075,-0.280901,-0.908803,38.969713,15.606941,-147.208947
22303,NaN,-2.674604,6.859847,7.204881,0.362143,-0.716122,0.457528,0.100220,-0.178968,0.049049,0.219996,0.215318,-0.281649,-0.908798,39.020227,15.511917,-147.258353
22304,NaN,-2.543828,7.005952,7.441173,0.182377,-0.777344,0.689118,0.138223,-0.186698,0.014690,0.219591,0.214615,-0.282538,-0.908786,39.087231,15.425905,-147.326943
22305,NaN,-2.403545,7.102237,7.684869,-0.027983,-0.801918,0.893952,0.167190,-0.141987,-0.032491,0.219006,0.214214,-0.283462,-0.908734,39.169922,15.376887,-147.400257
22306,NaN,-2.336721,7.150093,7.826476,-0.144313,-0.794738,1.012531,0.180780,-0.136532,-0.046183,0.218350,0.213871,-0.284424,-0.908672,39.258953,15.335381,-147.478237
22307,NaN,-2.121845,6.938478,7.658932,-0.293493,-0.802152,0.702746,0.174496,-0.194970,-0.082851,0.217453,0.213308,-0.285384,-0.908719,39.334529,15.281367,-147.594708
22308,NaN,-2.196409,6.665945,7.344823,-0.145714,-0.678542,0.322587,0.167655,-0.252684,-0.116928,0.216323,0.212523,-0.286336,-0.908873,39.396114,15.214317,-147.748992
22309,NaN,-2.286751,6.384341,7.282483,-0.115124,-0.435202,0.128184,0.172849,-0.260200,-0.172313,0.214927,0.211789,-0.287263,-0.909083,39.453803,15.164205,-147.931147
22310,NaN,-2.531516,6.150268,7.470705,-0.071552,-0.043025,0.189254,0.157123,-0.295223,-0.219428,0.213280,0.210944,-0.288102,-0.909402,39.493163,15.115957,-148.148498
22311,NaN,-2.840053,5.955986,7.672916,0.034793,0.357030,0.300898,0.139474,-0.362489,-0.207604,0.211609,0.209758,-0.288946,-0.909798,39.517837,15.033770,-148.385375
22312,NaN,-3.117962,5.815006,7.798595,0.179290,0.666572,0.379347,0.083595,-0.434863,-0.216748,0.209848,0.208195,-0.289599,-0.910358,39.502393,14.922952,-148.654059
22313,NaN,-3.366262,5.767031,8.090893,0.252597,0.961886,0.630674,0.032240,-0.526059,-0.215251,0.208015,0.206160,-0.290116,-0.911076,39.449944,14.771045,-148.955831
22314,NaN,-3.002660,5.438042,7.802798,0.044277,0.904227,0.119695,0.020747,-0.581341,-0.199040,0.206184,0.203834,-0.290650,-0.911846,39.388077,14.588538,-149.270950
22315,NaN,-3.392802,5.319803,7.826324,0.362422,1.201227,0.161698,0.012718,-0.516478,-0.194798,0.204475,0.201790,-0.291084,-0.912546,39.329537,14.432902,-149.558968
22316,NaN,-3.290865,5.310508,8.048739,0.198489,1.261777,0.295820,0.015014,-0.446341,-0.168644,0.202981,0.200027,-0.291480,-0.913142,39.282261,14.298612,-149.808777
22317,NaN,-3.041171,5.352720,8.146505,-0.018469,1.157985,0.332486,0.022417,-0.416278,-0.137101,0.201669,0.198363,-0.291910,-0.913658,39.246487,14.166086,-150.032320
22318,NaN,-2.876061,5.419157,8.130115,-0.106832,1.027398,0.319970,0.025712,-0.364859,-0.119190,0.200508,0.196909,-0.292318,-0.914097,39.219480,14.049729,-150.228591
22319,NaN,-2.918233,5.445544,8.078154,-0.018780,1.010719,0.306832,0.036265,-0.309082,-0.110333,0.199459,0.195709,-0.292728,-0.914453,39.205245,13.954933,-150.399561
22320,NaN,-2.785742,5.556623,8.120929,-0.106790,0.890452,0.374637,0.057547,-0.257561,-0.096970,0.198523,0.194743,-0.293195,-0.914713,39.209241,13.878079,-150.545415
22321,NaN,-2.740733,5.696127,8.075244,-0.074970,0.751738,0.414546,0.065293,-0.250673,-0.080153,0.197668,0.193794,-0.293707,-0.914936,39.220612,13.798260,-150.680700
22322,NaN,-2.669038,5.836955,7.781705,0.051642,0.485871,0.262528,0.057396,-0.268832,-0.059506,0.196887,0.192721,-0.294220,-0.915166,39.228020,13.702872,-150.813559
22323,NaN,-2.361991,5.906720,7.492947,-0.041784,0.162665,0.015047,0.038756,-0.258693,-0.067270,0.196104,0.191688,-0.294630,-0.915419,39.225302,13.614842,-150.945893
22324,NaN,-2.245532,5.994267,7.112778,0.070601,-0.129004,-0.244844,0.016651,-0.222184,-0.070972,0.195377,0.190805,-0.294898,-0.915673,39.212627,13.544302,-151.066496
22325,NaN,-2.179546,6.041621,6.886770,0.141393,-0.298028,-0.401503,0.001241,-0.204113,-0.078290,0.194660,0.190002,-0.295072,-0.915936,39.192330,13.484456,-151.183407
22326,NaN,-2.138897,6.128849,6.727248,0.212562,-0.456796,-0.477824,-0.032205,-0.227467,-0.092370,0.193873,0.189078,-0.295100,-0.916285,39.149223,13.419214,-151.315623
22327,NaN,-1.610558,6.254996,6.465274,-0.076081,-0.922635,-0.720846,-0.050728,-0.210688,-0.097933,0.193104,0.188222,-0.295023,-0.916649,39.096816,13.363377,-151.443818
22328,NaN,-1.631485,6.418028,6.537508,-0.042984,-1.005498,-0.561797,-0.067501,-0.159852,-0.092023,0.192452,0.187572,-0.294823,-0.916983,39.039594,13.327859,-151.550604
22329,NaN,-1.891846,6.498528,6.612952,0.172543,-0.915596,-0.396054,-0.078226,-0.139345,-0.077062,0.191910,0.186986,-0.294570,-0.917298,38.979917,13.296015,-151.642607
22330,NaN,-2.066995,6.636957,6.682977,0.332512,-0.912420,-0.218899,-0.085105,-0.138925,-0.066974,0.191419,0.186379,-0.294293,-0.917613,38.917168,13.260583,-151.730073
22331,NaN,-2.179978,6.682815,6.725039,0.430576,-0.881671,-0.134065,-0.087912,-0.136459,-0.054498,0.190994,0.185763,-0.294013,-0.917916,38.854720,13.221690,-151.810566
22332,NaN,-2.231766,6.673149,6.806148,0.444677,-0.820154,-0.067692,-0.100922,-0.108183,-0.065689,0.190569,0.185279,-0.293635,-0.918223,38.785760,13.199329,-151.885996
22333,NaN,-2.390769,6.630630,6.888318,0.540768,-0.686703,0.003929,-0.117815,-0.078851,-0.079595,0.190141,0.184936,-0.293140,-0.918539,38.708502,13.195018,-151.956652
22334,NaN,-2.461181,6.509717,6.915240,0.565240,-0.563018,-0.034249,-0.122906,-0.069494,-0.107429,0.189601,0.184670,-0.292584,-0.918881,38.625844,13.204711,-152.036970
22335,NaN,-2.317323,6.353135,6.958477,0.387464,-0.502783,-0.130241,-0.108338,-0.033945,-0.096747,0.189150,0.184567,-0.292074,-0.919157,38.555977,13.226435,-152.099016
22336,NaN,-2.197510,6.234015,7.041712,0.218756,-0.440584,-0.167185,-0.103812,0.002719,-0.096947,0.188746,0.184635,-0.291547,-0.919394,38.491360,13.264561,-152.148073
22337,NaN,-2.170270,6.041348,7.182447,0.084374,-0.253108,-0.183341,-0.096163,0.024959,-0.080061,0.188447,0.184790,-0.291052,-0.919581,38.435114,13.306648,-152.180908
22338,NaN,-2.081229,5.945237,7.357122,-0.096592,-0.150269,-0.129058,-0.087176,0.055955,-0.058518,0.188282,0.185063,-0.290587,-0.919707,38.388514,13.354901,-152.192852
22339,NaN,-2.341736,5.832648,7.516365,0.025311,0.116777,-0.015496,-0.093141,0.065082,-0.052200,0.188166,0.185364,-0.290094,-0.919826,38.340300,13.405029,-152.198241
22340,NaN,-2.368973,5.820394,7.768754,-0.070204,0.244801,0.176191,-0.097833,0.041611,-0.032379,0.188110,0.185523,-0.289617,-0.919955,38.289144,13.437529,-152.203431
22341,NaN,-2.486016,5.700016,8.036929,-0.117878,0.503145,0.335988,-0.117313,0.001205,-0.026978,0.188041,0.185471,-0.289096,-0.920144,38.224344,13.449967,-152.220556
22342,NaN,-2.609171,5.607712,8.176711,-0.091696,0.682915,0.416585,-0.131030,-0.032483,-0.019811,0.187966,0.185239,-0.288548,-0.920378,38.149226,13.444635,-152.246987
22343,NaN,-2.563904,5.568946,8.217278,-0.149963,0.699665,0.414648,-0.141517,-0.051393,-0.010214,0.187919,0.184898,-0.287980,-0.920634,38.067898,13.427407,-152.275507
22344,NaN,-2.666664,5.497393,8.206780,-0.063730,0.785443,0.388423,-0.137599,-0.067260,-0.001679,0.187884,0.184474,-0.287451,-0.920892,37.988060,13.399909,-152.306126
22345,NaN,-2.555558,5.478044,8.123514,-0.115628,0.702517,0.288026,-0.127294,-0.079221,0.001856,0.187839,0.184001,-0.286985,-0.921140,37.913886,13.365771,-152.339099
22346,NaN,-2.560729,5.466952,7.958072,-0.029004,0.629501,0.156198,-0.111644,-0.075887,0.002081,0.187784,0.183555,-0.286587,-0.921364,37.848653,13.332973,-152.371009
22347,NaN,-2.586445,5.525225,7.878479,0.053035,0.553490,0.136135,-0.097416,-0.088029,-0.004484,0.187671,0.183079,-0.286261,-0.921584,37.790198,13.297009,-152.410015
22348,NaN,-2.532833,5.624060,7.820606,0.066737,0.421103,0.138462,-0.091677,-0.102724,-0.025997,0.187429,0.182568,-0.285954,-0.921829,37.731239,13.261840,-152.464587
22349,NaN,-2.326072,5.739401,7.717128,-0.029311,0.186162,0.080233,-0.077132,-0.084297,-0.048560,0.187099,0.182191,-0.285678,-0.922057,37.680079,13.242936,-152.522724
22350,NaN,-2.259419,5.815368,7.687067,-0.050738,0.076984,0.087109,-0.073036,-0.040742,-0.081718,0.186672,0.182063,-0.285347,-0.922271,37.631002,13.255289,-152.580900
22351,NaN,-2.249316,5.915062,7.748827,-0.062090,0.015535,0.191692,-0.068851,-0.023305,-0.100816,0.186180,0.182049,-0.285004,-0.922479,37.584014,13.282259,-152.641471
22352,NaN,-2.153876,6.030876,7.687854,-0.089591,-0.152691,0.191432,-0.065097,-0.040542,-0.090766,0.185705,0.181943,-0.284702,-0.922689,37.538484,13.297770,-152.703829
22353,NaN,-1.981822,6.087871,7.492076,-0.136229,-0.370583,0.034399,-0.069958,-0.066195,-0.083713,0.185231,0.181705,-0.284409,-0.922922,37.489121,13.299171,-152.771843
22354,NaN,-1.858587,6.160768,7.341514,-0.155317,-0.557664,-0.067323,-0.074130,-0.077605,-0.076739,0.184776,0.181399,-0.284112,-0.923165,37.436858,13.292835,-152.840947
22355,NaN,-1.935262,6.216414,7.185245,-0.002359,-0.644982,-0.137938,-0.076116,-0.083500,-0.074703,0.184325,0.181063,-0.283814,-0.923412,37.383505,13.283102,-152.910904
22356,NaN,-2.039752,6.181106,7.216062,0.070358,-0.564348,-0.111411,-0.068295,-0.065917,-0.074067,0.183893,0.180812,-0.283535,-0.923633,37.335851,13.281037,-152.974567
22357,NaN,-2.246518,6.144970,7.291919,0.211699,-0.416988,-0.026939,-0.066472,-0.077844,-0.070182,0.183463,0.180504,-0.283281,-0.923857,37.289034,13.272200,-153.040374
22358,NaN,-2.275541,6.126025,7.348097,0.212157,-0.370791,0.011685,-0.071334,-0.074214,-0.077493,0.183006,0.180218,-0.282993,-0.924092,37.238607,13.267437,-153.108592
22359,NaN,-2.372809,6.029961,7.488290,0.216015,-0.197984,0.085761,-0.083525,-0.048764,-0.086605,0.182556,0.180052,-0.282618,-0.924328,37.182634,13.277427,-153.171714
22360,NaN,-2.469042,5.960682,7.648593,0.215071,-0.038605,0.191268,-0.085883,-0.017117,-0.076840,0.182195,0.180014,-0.282211,-0.924531,37.128588,13.298386,-153.219319
22361,NaN,-2.463956,5.927446,7.831677,0.123172,0.057643,0.312645,-0.101030,0.016164,-0.066605,0.181945,0.180104,-0.281714,-0.924714,37.070020,13.331019,-153.250026
22362,NaN,-2.455928,5.912874,7.987133,0.043866,0.123624,0.423070,-0.119609,0.052156,-0.049352,0.181840,0.180317,-0.281112,-0.924876,37.005244,13.374079,-153.260196
22363,NaN,-2.566150,5.900349,8.038036,0.111779,0.190910,0.481015,-0.127033,0.088529,-0.029822,0.181885,0.180666,-0.280462,-0.924997,36.941656,13.427115,-153.248037
22364,NaN,-2.801880,5.881527,8.084103,0.288311,0.314917,0.560996,-0.140514,0.104984,-0.016669,0.182023,0.181059,-0.279744,-0.925110,36.872790,13.483109,-153.224226
22365,NaN,-2.689983,5.813342,8.004481,0.206187,0.268620,0.433677,-0.134161,0.112159,0.007879,0.182282,0.181458,-0.279074,-0.925183,36.811226,13.534052,-153.186079
22366,NaN,-2.761840,5.818640,7.880369,0.320341,0.226104,0.357405,-0.143414,0.121077,0.003004,0.182536,0.181894,-0.278346,-0.925267,36.744225,13.590736,-153.147420
22367,NaN,-2.690635,5.804812,7.791182,0.290852,0.150134,0.263557,-0.161109,0.112778,-0.011293,0.182731,0.182297,-0.277532,-0.925393,36.665185,13.648602,-153.118239
22368,NaN,-2.494011,5.756957,7.615524,0.183841,0.005400,0.052656,-0.174575,0.092678,-0.030367,0.182820,0.182620,-0.276655,-0.925575,36.574274,13.703734,-153.105506
22369,NaN,-2.597269,5.895823,7.547447,0.335876,-0.106914,0.104278,-0.202654,0.062990,-0.050851,0.182800,0.182810,-0.275657,-0.925839,36.462807,13.752296,-153.112697
22370,NaN,-2.140940,5.758845,7.400705,-0.026104,-0.284804,-0.198295,-0.186205,0.040288,-0.055221,0.182712,0.182913,-0.274751,-0.926105,36.358029,13.791768,-153.130311
22371,NaN,-2.205461,5.785614,7.277790,0.091831,-0.349185,-0.264220,-0.174370,0.043580,-0.044724,0.182668,0.183030,-0.273908,-0.926341,36.261812,13.829169,-153.141584
22372,NaN,-1.772934,5.693763,7.221220,-0.278720,-0.508035,-0.465364,-0.161553,0.048671,-0.042947,0.182625,0.183177,-0.273118,-0.926553,36.173200,13.868303,-153.150574
22373,NaN,-2.167868,5.605368,7.319093,0.000098,-0.238119,-0.345259,-0.164813,0.049278,-0.040170,0.182600,0.183323,-0.272318,-0.926765,36.083453,13.906818,-153.157821
22374,NaN,-2.058500,5.557544,7.387552,-0.134248,-0.233706,-0.345534,-0.159363,0.023196,-0.035238,0.182556,0.183344,-0.271569,-0.926989,35.994812,13.931524,-153.172107
22375,NaN,-1.840624,5.390271,7.428290,-0.378821,-0.193726,-0.461678,-0.144037,0.042359,-0.023345,0.182581,0.183453,-0.270886,-0.927162,35.918290,13.961192,-153.173813
22376,NaN,-2.196143,5.428191,7.582672,-0.129521,-0.014565,-0.233115,-0.149869,0.074034,-0.024708,0.182646,0.183704,-0.270144,-0.927316,35.840523,14.005924,-153.165543
22377,NaN,-2.370670,5.428639,7.874754,-0.107549,0.173056,0.039237,-0.155000,0.066348,-0.035384,0.182656,0.183932,-0.269378,-0.927492,35.758354,14.050845,-153.164829
22378,NaN,-2.501538,5.439719,7.920912,-0.013213,0.225365,0.113948,-0.154872,0.074035,-0.049041,0.182613,0.184210,-0.268590,-0.927674,35.674864,14.103739,-153.168357
22379,NaN,-2.692312,5.479500,8.132066,0.065019,0.350939,0.349819,-0.156610,0.105470,-0.063354,0.182548,0.184654,-0.267754,-0.927840,35.591697,14.176071,-153.167742
22380,NaN,-2.696663,5.543100,8.177220,0.058277,0.303005,0.423016,-0.157089,0.122495,-0.067886,0.182484,0.185180,-0.266893,-0.927996,35.508754,14.257823,-153.163839
22381,NaN,-2.543954,5.587614,8.061317,-0.018607,0.132246,0.319445,-0.154239,0.119116,-0.070704,0.182401,0.185699,-0.266048,-0.928151,35.427113,14.338982,-153.162257
22382,NaN,-2.402804,5.530649,7.909007,-0.093146,0.031742,0.132373,-0.155278,0.106767,-0.081183,0.182252,0.186171,-0.265197,-0.928329,35.342228,14.417809,-153.170394
22383,NaN,-2.155391,5.534689,7.780680,-0.255077,-0.153461,-0.028576,-0.162423,0.102971,-0.099420,0.182021,0.186645,-0.264303,-0.928534,35.251148,14.500941,-153.188573
22384,NaN,-2.080389,5.775833,7.761816,-0.259252,-0.406729,0.071713,-0.177769,0.085256,-0.127712,0.181648,0.187059,-0.263323,-0.928802,35.145792,14.585037,-153.226826
22385,NaN,-2.272230,5.678487,7.695483,-0.091451,-0.295679,0.012427,-0.178992,0.049847,-0.144828,0.181152,0.187329,-0.262356,-0.929118,35.034846,14.658018,-153.285337
22386,NaN,-2.056320,5.783001,7.530925,-0.184634,-0.562779,-0.115496,-0.153799,0.082345,-0.126953,0.180755,0.187749,-0.261491,-0.929355,34.942878,14.740363,-153.324555
22387,NaN,-2.424303,5.930847,7.619062,0.123379,-0.502832,0.128852,-0.133551,0.080729,-0.114524,0.180396,0.188165,-0.260736,-0.929552,34.864295,14.817846,-153.358215
22388,NaN,-2.575927,5.992074,7.656959,0.247666,-0.487303,0.230746,-0.129054,0.039465,-0.102617,0.180034,0.188376,-0.260047,-0.929773,34.785655,14.871951,-153.400376
22389,NaN,-2.541845,5.922827,7.647997,0.203129,-0.465460,0.176045,-0.113494,0.038382,-0.085739,0.179734,0.188576,-0.259450,-0.929957,34.718366,14.920096,-153.434510
22390,NaN,-2.790386,5.830547,7.720492,0.359897,-0.267972,0.246446,-0.104670,0.077937,-0.075045,0.179527,0.188952,-0.258865,-0.930084,34.660399,14.983238,-153.450396
22391,NaN,-3.073136,5.726346,7.864099,0.509241,-0.016216,0.376506,-0.088171,0.091900,-0.076599,0.179316,0.189411,-0.258345,-0.930176,34.613226,15.053459,-153.462061
22392,NaN,-3.056981,5.708727,7.819755,0.503535,-0.039649,0.327733,-0.074879,0.076474,-0.084172,0.179036,0.189818,-0.257891,-0.930273,34.570972,15.118853,-153.483018
22393,NaN,-2.776046,5.684598,7.843330,0.236666,-0.144030,0.260154,-0.072612,0.076545,-0.121557,0.178581,0.190278,-0.257415,-0.930398,34.525672,15.196456,-153.522034
22394,NaN,-2.597371,5.678521,7.907422,0.042338,-0.203711,0.260839,-0.075324,0.092417,-0.148808,0.178021,0.190842,-0.256883,-0.930537,34.476169,15.290323,-153.569385
22395,NaN,-2.412214,5.575314,8.007562,-0.198213,-0.174451,0.234909,-0.079721,0.103876,-0.161374,0.177422,0.191473,-0.256311,-0.930679,34.423915,15.393720,-153.618887
22396,NaN,-2.265480,5.579526,8.143214,-0.396246,-0.201585,0.305503,-0.093241,0.089767,-0.163066,0.176808,0.192027,-0.255684,-0.930854,34.361827,15.490862,-153.674351
22397,NaN,-2.127628,5.564812,8.084783,-0.501990,-0.289789,0.213361,-0.118407,0.076026,-0.150310,0.176263,0.192479,-0.254967,-0.931061,34.286021,15.577282,-153.727973
22398,NaN,-2.200944,5.484795,8.093108,-0.468857,-0.209917,0.195389,-0.149288,0.096612,-0.144769,0.175797,0.192992,-0.254090,-0.931283,34.194607,15.671626,-153.772463
22399,NaN,-2.775623,5.601152,8.192685,0.002879,-0.042741,0.492416,-0.201570,0.082385,-0.153425,0.175325,0.193404,-0.252976,-0.931590,34.071094,15.761894,-153.825866
22400,NaN,-2.434820,5.515508,8.014222,-0.234133,-0.215623,0.211063,-0.208398,0.046063,-0.140540,0.174871,0.193623,-0.251871,-0.931929,33.941550,15.830697,-153.885540
22401,NaN,-2.344899,5.529202,7.733273,-0.186365,-0.403367,-0.031244,-0.222656,0.124614,-0.130055,0.174580,0.194181,-0.250646,-0.932198,33.812800,15.933118,-153.913991
22402,NaN,-2.435448,5.517629,7.735866,-0.119544,-0.382091,-0.011723,-0.230090,0.162582,-0.124917,0.174366,0.194904,-0.249352,-0.932434,33.683289,16.052199,-153.927722
22403,NaN,-2.405905,5.546889,7.547450,-0.061731,-0.522031,-0.156396,-0.254307,0.165599,-0.121217,0.174199,0.195615,-0.247949,-0.932690,33.540926,16.171403,-153.938555
22404,NaN,-2.332569,5.404648,7.453260,-0.123547,-0.504516,-0.329424,-0.268358,0.194645,-0.132752,0.174024,0.196463,-0.246440,-0.932945,33.391116,16.308219,-153.946263
22405,NaN,-2.210100,5.387621,7.474292,-0.255488,-0.567104,-0.358110,-0.279775,0.282791,-0.149294,0.173893,0.197731,-0.244789,-0.933136,33.241064,16.492244,-153.933509
22406,NaN,-2.416142,5.325906,7.692025,-0.210844,-0.382952,-0.159762,-0.298882,0.363391,-0.179985,0.173734,0.199395,-0.242942,-0.933294,33.082514,16.724759,-153.910441
22407,NaN,-2.672251,5.197806,8.007575,-0.189682,-0.092218,0.098651,-0.332105,0.412725,-0.212971,0.173514,0.201298,-0.240868,-0.933464,32.905250,16.990995,-153.888349
22408,NaN,-2.934257,5.153487,8.191159,-0.087559,0.075396,0.299174,-0.368100,0.428906,-0.203203,0.173393,0.203234,-0.238614,-0.933646,32.709638,17.262400,-153.857140
22409,NaN,-3.143517,5.159938,8.178800,0.073038,0.102471,0.355072,-0.402659,0.398979,-0.165230,0.173449,0.204950,-0.236266,-0.933857,32.497426,17.507383,-153.817160
22410,NaN,-3.427294,5.163092,7.987445,0.384746,0.097163,0.289066,-0.427772,0.357187,-0.153667,0.173531,0.206437,-0.233843,-0.934124,32.267889,17.729099,-153.785922
22411,NaN,-3.695586,5.235868,7.768991,0.716304,0.017939,0.232969,-0.460971,0.328151,-0.160801,0.173581,0.207761,-0.231286,-0.934458,32.015815,17.938375,-153.768498
22412,NaN,-3.699314,5.229156,7.560604,0.801675,-0.102172,0.063465,-0.455833,0.316230,-0.167023,0.173580,0.209044,-0.228750,-0.934796,31.763667,18.144457,-153.759064
22413,NaN,-3.922305,5.208023,7.525112,0.989864,-0.055148,0.094490,-0.454171,0.315049,-0.182881,0.173502,0.210336,-0.226208,-0.935139,31.510068,18.354261,-153.758926
22414,NaN,-3.972096,5.267104,7.553661,1.017747,-0.126569,0.163567,-0.453476,0.318384,-0.202064,0.173334,0.211667,-0.223640,-0.935488,31.253225,18.571923,-153.768789
22415,NaN,-4.147785,5.213196,7.499473,1.165956,-0.080109,0.150118,-0.458570,0.298910,-0.216807,0.173079,0.212916,-0.221054,-0.935866,30.989405,18.784102,-153.793309
22416,NaN,-4.102026,5.038719,7.550971,1.048315,0.010348,0.093529,-0.462513,0.301232,-0.239079,0.172725,0.214197,-0.218415,-0.936259,30.718664,19.004108,-153.829885
22417,NaN,-4.198421,4.926727,7.606617,1.064286,0.107090,0.117848,-0.480676,0.274249,-0.262762,0.172251,0.215360,-0.215692,-0.936711,30.430809,19.217447,-153.888060
22418,NaN,-4.120162,4.769390,7.637609,0.936602,0.160338,0.043918,-0.490238,0.230038,-0.261570,0.171741,0.216304,-0.212957,-0.937212,30.132021,19.408370,-153.960644
22419,NaN,-3.981218,4.677799,7.477952,0.867237,0.072881,-0.174534,-0.477057,0.195977,-0.257034,0.171203,0.217095,-0.210319,-0.937723,29.838007,19.580836,-154.041920
22420,NaN,-3.622393,4.592848,7.346788,0.599048,-0.098231,-0.441320,-0.468017,0.246744,-0.247130,0.170751,0.218118,-0.207685,-0.938155,29.555030,19.775264,-154.104065
22421,NaN,-3.241751,4.657527,7.486217,0.211618,-0.319574,-0.426646,-0.461844,0.336564,-0.246021,0.170392,0.219566,-0.205007,-0.938472,29.284829,20.014025,-154.139428
22422,NaN,-2.924268,4.727869,7.667730,-0.148276,-0.510023,-0.356698,-0.466311,0.421468,-0.261494,0.170048,0.221420,-0.202213,-0.938705,29.016860,20.299326,-154.159442
22423,NaN,-2.978384,4.756691,7.946567,-0.256529,-0.487474,-0.099758,-0.474463,0.462477,-0.258323,0.169770,0.223456,-0.199350,-0.938885,28.748919,20.604348,-154.166687
22424,NaN,-3.243569,4.702030,8.244326,-0.216731,-0.305723,0.210181,-0.494093,0.433528,-0.246811,0.169534,0.225324,-0.196427,-0.939097,28.467839,20.891496,-154.178231
22425,NaN,-3.242589,4.524783,8.359502,-0.337960,-0.182365,0.223321,-0.507368,0.412142,-0.217756,0.169429,0.227050,-0.193493,-0.939310,28.182437,21.160009,-154.181410
22426,NaN,-3.421147,4.485836,8.446305,-0.260881,-0.113283,0.340431,-0.503867,0.410662,-0.169567,0.169541,0.228721,-0.190626,-0.939470,27.907359,21.414667,-154.160714
22427,NaN,-3.613939,4.453787,8.331704,-0.068948,-0.099098,0.301618,-0.506385,0.380587,-0.141830,0.169758,0.230222,-0.187806,-0.939632,27.633324,21.646859,-154.134367
22428,NaN,-3.892734,4.432577,8.177357,0.221814,-0.066240,0.267811,-0.496476,0.319074,-0.112163,0.170041,0.231410,-0.185114,-0.939824,27.363662,21.839956,-154.110899
22429,NaN,-4.069161,4.310591,7.986513,0.425487,0.009295,0.124230,-0.455044,0.274217,-0.112736,0.170234,0.232423,-0.182655,-0.940020,27.113108,22.010546,-154.100892
22430,NaN,-4.488109,4.228997,7.951443,0.765575,0.193133,0.218733,-0.440586,0.225890,-0.135989,0.170252,0.233239,-0.180274,-0.940274,26.860153,22.162447,-154.118504
22431,NaN,-4.908252,4.073812,7.912870,1.094804,0.442379,0.282159,-0.419798,0.141540,-0.169443,0.170014,0.233708,-0.178026,-0.940629,26.603413,22.279844,-154.178391
22432,NaN,-5.044586,4.043456,7.902764,1.206953,0.476872,0.314838,-0.385051,0.095412,-0.178697,0.169648,0.233993,-0.175966,-0.941012,26.358961,22.375592,-154.257196
22433,NaN,-5.086444,3.957588,7.906768,1.221792,0.527695,0.300670,-0.372162,0.079516,-0.189032,0.169205,0.234226,-0.173970,-0.941405,26.118237,22.465619,-154.346160
22434,NaN,-5.267829,3.963939,7.766463,1.448780,0.517848,0.257740,-0.376689,0.048981,-0.185598,0.168755,0.234304,-0.171978,-0.941832,25.871678,22.538567,-154.442408
22435,NaN,-5.199295,3.872798,7.741897,1.391068,0.524129,0.175219,-0.369260,-0.025724,-0.200539,0.168162,0.234051,-0.170070,-0.942347,25.618720,22.576465,-154.567106
22436,NaN,-4.791732,3.907586,7.710751,1.088574,0.285010,0.006642,-0.340082,-0.088199,-0.233105,0.167326,0.233552,-0.168309,-0.942936,25.368436,22.589401,-154.727346
22437,NaN,-4.265310,3.878478,7.820025,0.600033,0.091714,-0.116313,-0.314342,-0.041840,-0.266030,0.166345,0.233323,-0.166595,-0.943470,25.130907,22.633984,-154.893487
22438,NaN,-4.143959,3.840950,8.078527,0.367034,0.099994,0.038355,-0.310902,0.041225,-0.273652,0.165390,0.233492,-0.164816,-0.943909,24.901317,22.722709,-155.042781
22439,NaN,-4.042921,3.916207,8.462911,0.108245,0.042410,0.350436,-0.309275,0.111248,-0.276295,0.164480,0.233996,-0.162985,-0.944261,24.679204,22.848167,-155.175418
22440,NaN,-3.909713,4.015359,8.780847,-0.143241,-0.069580,0.603007,-0.351324,0.147240,-0.281009,0.163623,0.234635,-0.160917,-0.944605,24.434522,22.992785,-155.302499
22441,NaN,-3.698901,4.001666,8.858307,-0.370462,-0.172117,0.579506,-0.406459,0.225922,-0.276264,0.162918,0.235598,-0.158532,-0.944891,24.167048,23.177068,-155.407177
22442,NaN,-3.701771,3.907717,8.817847,-0.383109,-0.152002,0.509987,-0.462016,0.301605,-0.210738,0.162645,0.236817,-0.155895,-0.945072,23.888820,23.384985,-155.456808
22443,NaN,-3.708265,3.837327,8.503886,-0.254716,-0.212990,0.221345,-0.511046,0.397291,-0.136739,0.162854,0.238391,-0.153039,-0.945107,23.608835,23.625997,-155.440825
22444,NaN,-3.773903,3.767685,8.227100,-0.098671,-0.243262,-0.011988,-0.551993,0.473715,-0.079241,0.163438,0.240243,-0.149990,-0.945026,23.325417,23.893910,-155.374442
22445,NaN,-3.982347,3.660018,8.166682,0.056509,-0.138341,-0.018462,-0.558120,0.489201,-0.053480,0.164163,0.242144,-0.146931,-0.944896,23.046362,24.164670,-155.290263
22446,NaN,-4.547575,3.582712,8.436270,0.349440,0.142377,0.412000,-0.551195,0.409482,-0.043976,0.164862,0.243661,-0.143978,-0.944839,22.764807,24.391401,-155.221792
22447,NaN,-4.574277,3.536852,8.415829,0.357749,0.134230,0.390903,-0.549125,0.301317,-0.042594,0.165487,0.244668,-0.141126,-0.944899,22.474182,24.561138,-155.179423
22448,NaN,-4.526547,3.452399,8.282295,0.357627,0.112912,0.230429,-0.572458,0.318732,-0.026384,0.166226,0.245721,-0.138165,-0.944934,22.175092,24.736563,-155.124755
22449,NaN,-4.399981,3.462984,8.150436,0.312846,-0.024583,0.070781,-0.610273,0.396063,0.016173,0.167266,0.247079,-0.135015,-0.944852,21.872784,24.944393,-155.027380
22450,NaN,-3.980977,3.389541,7.995239,0.013391,-0.204054,-0.261831,-0.674195,0.540363,0.086957,0.168813,0.249010,-0.131525,-0.944562,21.565212,25.214273,-154.856080
22451,NaN,-3.852147,3.329707,8.006624,-0.135949,-0.259697,-0.328717,-0.719119,0.645498,0.165602,0.170854,0.251346,-0.127832,-0.944083,21.263027,25.524818,-154.614766
22452,NaN,-3.884471,3.294261,8.061243,-0.172734,-0.270584,-0.282659,-0.751410,0.677326,0.231724,0.173262,0.253753,-0.124036,-0.943507,20.962639,25.839654,-154.328562
22453,NaN,-3.772760,3.294213,8.155398,-0.337635,-0.365687,-0.255077,-0.780091,0.687110,0.274720,0.175912,0.256151,-0.120151,-0.942871,20.659489,26.152536,-154.015167
22454,NaN,-3.949404,3.195912,8.470801,-0.415146,-0.230739,0.053419,-0.758245,0.739004,0.298220,0.178670,0.258788,-0.116346,-0.942109,20.380908,26.489764,-153.677421
22455,NaN,-4.662489,3.109368,9.005799,-0.183397,0.132165,0.792020,-0.726096,0.710276,0.317945,0.181459,0.261303,-0.112744,-0.941319,20.125128,26.809234,-153.334524
22456,NaN,-5.004716,3.194492,9.429920,-0.141064,0.176558,1.328402,-0.726906,0.565200,0.312318,0.184134,0.263127,-0.109257,-0.940703,19.853504,27.052908,-153.028157
22457,NaN,-5.021042,3.119282,9.532330,-0.221416,0.198140,1.399692,-0.755537,0.464042,0.314729,0.186801,0.264445,-0.105732,-0.940210,19.557348,27.243082,-152.742600
22458,NaN,-5.291525,2.947258,9.422208,-0.008896,0.388453,1.381652,-0.798418,0.441115,0.323031,0.189546,0.265602,-0.102032,-0.939743,19.236642,27.420468,-152.458047
22459,NaN,-5.338941,2.742524,8.926350,0.225224,0.485142,0.930638,-0.828792,0.448902,0.362152,0.192516,0.266744,-0.098234,-0.939221,18.911329,27.596345,-152.148188
22460,NaN,-5.306602,2.519316,8.418014,0.397100,0.574539,0.428499,-0.821848,0.437440,0.392022,0.195604,0.267814,-0.094515,-0.938659,18.597374,27.761853,-151.823498
22461,NaN,-5.023917,2.380311,8.176317,0.258648,0.512568,0.057873,-0.810272,0.369890,0.404014,0.198699,0.268569,-0.090933,-0.938147,18.288025,27.890216,-151.505425
22462,NaN,-4.632624,2.065307,8.138093,-0.124799,0.581549,-0.241831,-0.787662,0.282995,0.404624,0.201720,0.268931,-0.087539,-0.937722,17.983353,27.972477,-151.205431
22463,NaN,-4.186434,2.052593,7.869728,-0.323411,0.342203,-0.677584,-0.784501,0.271163,0.418021,0.204793,0.269231,-0.084191,-0.937276,17.684032,28.047516,-150.899364
22464,NaN,-4.200165,2.292070,7.650795,-0.105962,0.078075,-0.789819,-0.786370,0.287257,0.451546,0.208025,0.269581,-0.080858,-0.936757,17.394633,28.126757,-150.570032
22465,NaN,-3.029351,2.681450,7.573354,-0.821839,-0.829579,-1.306279,-0.832561,0.445559,0.513103,0.211669,0.270597,-0.077227,-0.935954,17.112335,28.283784,-150.171621
22466,NaN,-4.012461,2.436798,8.042987,-0.415089,-0.220711,-0.511820,-0.890210,0.649654,0.570805,0.215730,0.272472,-0.073184,-0.934807,16.833296,28.544543,-149.698965
22467,NaN,-4.110574,2.256334,7.985116,-0.391342,-0.075932,-0.561163,-0.888179,0.679831,0.607783,0.219967,0.274470,-0.069168,-0.933540,16.571603,28.817884,-149.197277
22468,NaN,-4.015589,2.294963,7.725656,-0.328507,-0.214828,-0.816958,-0.920040,0.790017,0.651080,0.224476,0.276917,-0.064936,-0.932047,16.316530,29.146581,-148.648366
22469,NaN,-3.958851,2.309919,7.473009,-0.255425,-0.316508,-1.055507,-0.976516,0.960500,0.678909,0.229239,0.280074,-0.060288,-0.930255,16.056843,29.566930,-148.049885
22470,NaN,-4.245177,2.182685,7.537942,-0.169446,-0.142917,-0.893246,-1.008462,1.124500,0.693867,0.234149,0.283933,-0.055317,-0.928168,15.802342,30.077485,-147.412048
22471,NaN,-4.811596,1.984259,7.981789,-0.132991,0.207348,-0.287129,-1.003799,1.123334,0.692169,0.239030,0.287775,-0.050365,-0.926020,15.555692,30.590192,-146.774318
22472,NaN,-4.919954,1.887371,8.192322,-0.261972,0.259194,-0.078940,-0.978036,0.963755,0.696484,0.243837,0.290888,-0.045724,-0.924033,15.314949,31.016323,-146.162070
22473,NaN,-4.553729,1.956880,8.073607,-0.464452,-0.039000,-0.350591,-0.949378,0.848463,0.708288,0.248619,0.293487,-0.041374,-0.922140,15.088505,31.379181,-145.561464
22474,NaN,-4.628833,1.896828,8.177194,-0.527324,-0.023758,-0.241300,-0.944363,0.846997,0.719839,0.253432,0.296065,-0.037060,-0.920187,14.871778,31.741393,-144.953415
22475,NaN,-5.286468,1.916051,8.467409,-0.259812,0.190690,0.346577,-0.937745,0.865522,0.737285,0.258307,0.298720,-0.032780,-0.918134,14.670859,32.113293,-144.329452
22476,NaN,-5.490217,2.109239,8.562593,-0.124953,0.047978,0.574369,-0.952233,0.900934,0.737074,0.263193,0.301501,-0.028383,-0.915981,14.468347,32.506635,-143.699004
22477,NaN,-5.948004,2.147357,8.854744,-0.004660,0.138991,1.067402,-1.005287,0.959209,0.711145,0.268035,0.304466,-0.023628,-0.913728,14.236482,32.938098,-143.074217
22478,NaN,-6.064875,1.917195,9.073949,-0.209992,0.282153,1.262971,-1.071883,1.057630,0.698484,0.272913,0.307773,-0.018414,-0.911293,13.975086,33.428203,-142.440864
22479,NaN,-6.180683,1.916576,8.659411,0.047014,0.303752,0.993052,-1.086993,1.127435,0.688879,0.277760,0.311357,-0.013022,-0.908700,13.713693,33.960936,-141.800891
22480,NaN,-5.989633,2.077814,8.222826,0.195113,0.042690,0.568403,-1.079769,1.177414,0.678656,0.282530,0.315155,-0.007573,-0.905978,13.462380,34.525190,-141.158908
22481,NaN,-5.620651,2.095919,8.062319,0.002879,-0.229228,0.233806,-1.083015,1.243280,0.663826,0.287221,0.319226,-0.001996,-0.903103,13.216337,35.130484,-140.514357
22482,NaN,-5.331882,2.079121,8.000351,-0.210367,-0.451005,0.011190,-1.078026,1.326324,0.668358,0.291900,0.323650,0.003673,-0.900018,12.988986,35.783651,-139.852034
22483,NaN,-5.046888,2.112870,7.665888,-0.234208,-0.660771,-0.420745,-1.079339,1.388615,0.687333,0.296643,0.328328,0.009406,-0.896725,12.782782,36.471264,-139.163664
22484,NaN,-4.739566,2.122889,7.277494,-0.247493,-0.844395,-0.915679,-1.073609,1.457379,0.705376,0.301424,0.333291,0.015187,-0.893213,12.602191,37.196872,-138.449006
22485,NaN,-4.620466,2.097428,6.972042,-0.212519,-0.911855,-1.240666,-1.096260,1.556172,0.729726,0.306318,0.338633,0.021173,-0.889409,12.439313,37.976442,-137.696691
22486,NaN,-4.530955,2.033177,6.752808,-0.234880,-0.951278,-1.487878,-1.121718,1.706993,0.759270,0.311334,0.344570,0.027454,-0.885205,12.301158,38.838343,-136.894378
22487,NaN,-4.782358,1.832380,6.613661,-0.198534,-0.723727,-1.481762,-1.161343,1.911052,0.809119,0.316574,0.351313,0.034135,-0.880452,12.199223,39.809741,-136.015220
22488,NaN,-5.077490,1.778304,6.462980,-0.068571,-0.593978,-1.424966,-1.201704,2.155313,0.878237,0.322095,0.359023,0.041257,-0.875017,12.151292,40.910506,-135.035461
22489,NaN,-5.201025,1.966468,6.380476,0.052400,-0.774369,-1.385154,-1.281212,2.402084,0.958397,0.328001,0.367634,0.048970,-0.868828,12.150781,42.140103,-133.938487
22490,NaN,-5.354432,2.045874,6.284024,0.119730,-0.856880,-1.351424,-1.375914,2.660300,1.048606,0.334332,0.377148,0.057343,-0.861796,12.205450,43.503091,-132.707269
22491,NaN,-5.577639,2.131161,6.227584,0.186870,-0.928381,-1.237462,-1.449414,2.852828,1.122862,0.340980,0.387291,0.066197,-0.854024,12.326379,44.963382,-131.352506
22492,NaN,-5.895232,2.043214,6.084377,0.223175,-0.792692,-1.137095,-1.486413,3.056609,1.216085,0.347923,0.398152,0.075358,-0.845426,12.560538,46.523276,-129.845078
22493,NaN,-6.390916,2.115640,5.857654,0.464020,-0.653739,-0.925373,-1.520910,3.265749,1.320951,0.355182,0.409740,0.084791,-0.835924,12.939574,48.181046,-128.153632
22494,NaN,-6.534778,1.994216,5.584727,0.429644,-0.538290,-1.015553,-1.573042,3.466355,1.403192,0.362666,0.421949,0.094599,-0.825520,13.462853,49.931056,-126.275904
22495,NaN,-6.964146,2.038751,5.162326,0.688376,-0.325285,-0.940284,-1.619997,3.660572,1.458118,0.370231,0.434719,0.104794,-0.814228,14.145898,51.768463,-124.206440
22496,NaN,-7.511221,1.973836,4.967430,0.736905,-0.084733,-0.623982,-1.673173,3.758966,1.483512,0.377787,0.447602,0.115287,-0.802271,14.976959,53.639576,-121.964599
22497,NaN,-7.887728,1.918393,4.839792,0.663863,0.017712,-0.385537,-1.709629,3.763484,1.462649,0.385163,0.460209,0.125923,-0.789937,15.939509,55.494719,-119.588921
22498,NaN,-8.443068,1.804217,4.853558,0.488243,0.156989,0.078013,-1.706380,3.687468,1.417726,0.392217,0.472277,0.136447,-0.777497,17.033727,57.290620,-117.108800
22499,NaN,-8.836729,1.690522,4.872811,0.246702,0.197730,0.413812,-1.660752,3.526068,1.368716,0.398913,0.483565,0.146530,-0.765220,18.267990,58.978422,-114.542628
22500,NaN,-9.448532,1.815723,5.130393,0.073488,0.029332,1.090413,-1.588520,3.321349,1.262480,0.405014,0.493942,0.156129,-0.753398,19.587139,60.544643,-111.969534
22501,NaN,-9.557878,1.273406,5.610048,-0.844944,-0.117953,1.309838,-1.528047,3.146790,1.173481,0.410627,0.503539,0.165308,-0.741962,21.000182,62.003113,-109.366992
22502,NaN,-10.281528,1.083393,5.726092,-1.169873,-0.000719,1.947160,-1.472796,2.958595,1.077460,0.415764,0.512309,0.174088,-0.731008,22.476742,63.350072,-106.762251
22503,NaN,-10.549004,1.213399,5.450538,-1.072631,-0.006884,2.074470,-1.360131,2.613867,0.985801,0.420470,0.519837,0.181925,-0.721026,23.960717,64.504489,-104.249466
22504,NaN,-10.065367,1.276856,5.169254,-1.078949,-0.245515,1.520193,-1.240344,2.230311,0.879696,0.424738,0.526027,0.188763,-0.712223,25.368180,65.456610,-101.918839
22505,NaN,-9.845154,1.273887,4.817178,-1.031141,-0.241347,1.170505,-1.113469,1.878754,0.771616,0.428557,0.531050,0.194656,-0.704581,26.663452,66.230926,-99.806720
22506,NaN,-9.345021,1.394795,4.235603,-0.743227,-0.210620,0.512840,-0.984118,1.634155,0.718503,0.432029,0.535375,0.199689,-0.697746,27.926348,66.875530,-97.822258
22507,NaN,-8.843708,1.528426,3.712275,-0.460696,-0.192963,-0.113344,-0.884398,1.536943,0.717154,0.435288,0.539522,0.204146,-0.691205,29.271252,67.453041,-95.819692
22508,NaN,-8.197497,1.625177,3.356289,-0.300002,-0.313367,-0.817397,-0.820112,1.591968,0.751900,0.438394,0.543986,0.208391,-0.684444,30.820983,68.028506,-93.644099
22509,NaN,-8.174927,1.774748,2.973517,-0.061323,-0.197299,-0.937063,-0.788950,1.717518,0.772474,0.441317,0.548914,0.212726,-0.677259,32.611963,68.634277,-91.236999
22510,NaN,-8.332468,1.843811,2.674872,0.057616,-0.037848,-0.869638,-0.812895,1.784433,0.753028,0.444116,0.553939,0.217323,-0.669838,34.540579,69.249474,-88.677900
22511,NaN,-8.712748,1.745753,2.685652,-0.141686,0.038137,-0.531044,-0.852577,1.804511,0.705512,0.446800,0.558829,0.222202,-0.662349,36.539058,69.857517,-86.030116
22512,NaN,-9.086392,1.850812,2.670453,-0.162613,0.018365,-0.164342,-0.875806,1.775314,0.671542,0.449416,0.563472,0.227166,-0.654920,38.590802,70.431598,-83.321744
22513,NaN,-8.866087,1.996438,2.563437,-0.079328,-0.149963,-0.371617,-0.894626,1.806437,0.649427,0.451932,0.568087,0.232297,-0.647358,40.777220,70.992591,-80.468578
22514,NaN,-9.048613,2.097989,2.403093,-0.025106,-0.123902,-0.219166,-0.900588,1.912737,0.658495,0.454313,0.572978,0.237636,-0.639394,43.243470,71.557208,-77.326204
22515,NaN,-9.777067,2.168375,2.266171,-0.061037,0.055175,0.454686,-0.888751,1.958010,0.646041,0.456516,0.577954,0.243045,-0.631261,45.928555,72.098891,-73.970521
22516,NaN,-9.998691,2.124273,2.261241,-0.237823,0.013148,0.653454,-0.853737,1.905556,0.657168,0.458657,0.582788,0.248164,-0.623222,48.752580,72.565139,-70.499842
22517,NaN,-10.060776,2.154306,2.354177,-0.385802,-0.190371,0.733156,-0.798117,1.805866,0.665272,0.460736,0.587383,0.252828,-0.615452,51.633221,72.937670,-67.010959
22518,NaN,-9.742003,2.348782,2.401521,-0.318899,-0.522650,0.473896,-0.715097,1.685154,0.672799,0.462697,0.591748,0.256912,-0.608064,54.512932,73.213273,-63.579076
22519,NaN,-9.482864,2.479139,2.191507,-0.176048,-0.570886,0.213030,-0.627161,1.540620,0.631084,0.464421,0.595772,0.260494,-0.601258,57.260166,73.412242,-60.342072
22520,NaN,-9.560405,2.573367,1.953109,-0.086498,-0.477245,0.267078,-0.556349,1.358828,0.565083,0.465936,0.599287,0.263622,-0.595199,59.742292,73.546970,-57.426993
22521,NaN,-9.277795,2.680448,1.609004,0.126625,-0.368252,-0.030122,-0.506334,1.205840,0.514465,0.467331,0.602363,0.266379,-0.589748,61.980940,73.629492,-54.796902
22522,NaN,-8.887481,2.794100,1.265228,0.371027,-0.272483,-0.422140,-0.466342,1.178676,0.500889,0.468574,0.605407,0.268985,-0.584438,64.203570,73.683502,-52.208626
22523,NaN,-8.653034,2.764831,0.871815,0.487706,-0.032598,-0.700086,-0.451772,1.273775,0.514796,0.469669,0.608750,0.271714,-0.578797,66.628003,73.722769,-49.419077
22524,NaN,-8.916987,2.918234,0.616282,0.605294,0.113393,-0.430355,-0.460002,1.368982,0.517364,0.470636,0.612321,0.274670,-0.572818,69.232273,73.747383,-46.438088
22525,NaN,-8.900517,2.956399,0.420314,0.641133,0.191651,-0.448542,-0.468382,1.373436,0.525333,0.471623,0.615859,0.277618,-0.566761,71.846204,73.729905,-43.441736
22526,NaN,-8.945279,2.917651,0.298033,0.564117,0.247943,-0.419142,-0.477385,1.357233,0.506235,0.472573,0.619269,0.280598,-0.560754,74.402711,73.682962,-40.499696
22527,NaN,-9.293849,2.943651,0.073324,0.522399,0.426651,-0.086946,-0.492041,1.298669,0.483293,0.473565,0.622412,0.283534,-0.554930,76.807176,73.604137,-37.706048
22528,NaN,-9.346511,3.001247,-0.123481,0.558454,0.515716,-0.024884,-0.475915,1.262547,0.470254,0.474493,0.625444,0.286368,-0.549245,79.118521,73.496582,-35.018147
22529,NaN,-8.918466,2.974835,-0.176404,0.570950,0.430165,-0.436777,-0.475404,1.312134,0.507827,0.475431,0.628633,0.289184,-0.543285,81.497038,73.340949,-32.258280
22530,NaN,-8.755000,2.906832,-0.089618,0.426775,0.274688,-0.601341,-0.437920,1.409394,0.547983,0.476188,0.632197,0.291988,-0.536950,84.036503,73.136413,-29.350523
22531,NaN,-8.908269,2.895893,0.134304,0.194991,0.012335,-0.446689,-0.376707,1.436087,0.600313,0.476828,0.636016,0.294505,-0.530459,86.594249,72.865578,-26.456305
22532,NaN,-8.833623,2.730720,0.609598,-0.215128,-0.459601,-0.560532,-0.290354,1.434433,0.660777,0.477320,0.640085,0.296581,-0.523924,89.110426,72.523443,-23.653031
22533,NaN,-8.644915,2.746663,1.153068,-0.458098,-1.075551,-0.744050,-0.187220,1.407328,0.726013,0.477669,0.644384,0.298092,-0.517439,91.525592,72.107914,-21.011564
22534,NaN,-8.513892,2.731881,1.456563,-0.649162,-1.449172,-0.893712,-0.093693,1.384895,0.784250,0.477865,0.648896,0.299103,-0.510995,93.830832,71.627495,-18.535861
22535,NaN,-8.342664,2.902239,1.196652,-0.451977,-1.368733,-1.016332,-0.026820,1.350103,0.801338,0.477916,0.653463,0.299784,-0.504690,95.986872,71.108901,-16.250406
22536,NaN,-8.358882,3.174447,0.629042,-0.108738,-1.020009,-0.908191,-0.038018,1.367097,0.756096,0.477829,0.657940,0.300666,-0.498392,98.055210,70.588794,-14.044349
22537,NaN,-8.579195,3.359478,-0.026622,0.119275,-0.546766,-0.616244,-0.137199,1.499913,0.720405,0.477754,0.662413,0.302208,-0.491559,100.169438,70.050269,-11.721501
22538,NaN,-8.776379,3.307340,-0.769436,0.168141,0.079365,-0.404241,-0.257453,1.641648,0.661476,0.477678,0.666810,0.304559,-0.484181,102.330617,69.500666,-9.267694
22539,NaN,-9.335673,3.390883,-1.426239,0.164397,0.585361,0.203055,-0.328661,1.689090,0.615510,0.477623,0.671027,0.307323,-0.476605,104.412923,68.938925,-6.845148
22540,NaN,-9.729971,3.532238,-2.011252,0.227737,0.986354,0.683365,-0.374628,1.620317,0.570123,0.477676,0.674848,0.310161,-0.469261,106.275134,68.383897,-4.622049
22541,NaN,-10.059290,3.529970,-2.458723,0.136077,1.309045,1.048305,-0.396633,1.460505,0.520029,0.477905,0.678115,0.312815,-0.462508,107.827798,67.858923,-2.710057
22542,NaN,-10.212907,3.490336,-2.629337,-0.011196,1.389406,1.208526,-0.337193,1.262634,0.472924,0.478101,0.680957,0.315003,-0.456607,109.099641,67.378481,-1.132294
22543,NaN,-9.999912,3.676717,-2.733170,0.166429,1.338544,1.103636,-0.274104,1.085360,0.441023,0.478274,0.683465,0.316717,-0.451464,110.137622,66.936982,0.158311
22544,NaN,-9.557737,3.959363,-2.628828,0.463665,1.073489,0.797181,-0.238336,1.005637,0.418928,0.478380,0.685822,0.318226,-0.446690,111.066094,66.515255,1.311022
22545,NaN,-9.074591,4.094887,-2.447253,0.635579,0.795680,0.388655,-0.233933,1.026167,0.432681,0.478460,0.688235,0.319715,-0.441804,111.976940,66.074253,2.446002
22546,NaN,-8.599928,4.060767,-2.199304,0.642515,0.515931,-0.086148,-0.218733,1.110283,0.470242,0.478414,0.690908,0.321234,-0.436549,112.940135,65.587911,3.632397
22547,NaN,-8.378384,4.119691,-1.881024,0.607075,0.131383,-0.308975,-0.224174,1.225189,0.509894,0.478274,0.693852,0.322888,-0.430775,113.966628,65.045780,4.897218
22548,NaN,-8.292219,4.090420,-1.428280,0.400764,-0.359945,-0.472396,-0.259641,1.351051,0.549476,0.478110,0.697014,0.324767,-0.424392,115.042394,64.443867,6.244384
22549,NaN,-8.327105,3.934338,-1.070723,0.061778,-0.730825,-0.570021,-0.310149,1.445871,0.591087,0.478034,0.700282,0.326814,-0.417470,116.110356,63.785970,7.622659
22550,NaN,-8.244972,3.861606,-0.955394,-0.088164,-0.899007,-0.702970,-0.341467,1.506577,0.633451,0.478020,0.703625,0.328904,-0.410158,117.141135,63.080240,8.987006
22551,NaN,-8.121704,3.851539,-1.002623,-0.124250,-0.931944,-0.817340,-0.383336,1.553602,0.671302,0.478125,0.706976,0.331034,-0.402490,118.111519,62.331909,10.319785
22552,NaN,-7.968367,3.801354,-1.101957,-0.170189,-0.899388,-0.962824,-0.413215,1.606529,0.716695,0.478297,0.710383,0.333166,-0.394447,119.031288,61.536592,11.623472
22553,NaN,-7.727589,3.830921,-1.321155,-0.081795,-0.770941,-1.121637,-0.407221,1.682545,0.750380,0.478353,0.713949,0.335318,-0.386029,119.942811,60.693026,12.924616
22554,NaN,-8.061858,3.734953,-1.633028,-0.357927,-0.581076,-0.804772,-0.445654,1.739450,0.736322,0.478374,0.717445,0.337702,-0.377344,120.827730,59.830468,14.230750
22555,NaN,-8.584281,3.757548,-2.167174,-0.592329,-0.256124,-0.216491,-0.414018,1.719395,0.747401,0.478298,0.720931,0.339906,-0.368720,121.646549,58.958640,15.451286
22556,NaN,-8.996678,3.978289,-2.743149,-0.613190,0.050676,0.380991,-0.360233,1.580986,0.691742,0.478114,0.724136,0.341853,-0.360791,122.361717,58.147920,16.524323
22557,NaN,-9.832160,4.267010,-3.213166,-0.818618,0.176331,1.345275,-0.373252,1.297104,0.596020,0.478266,0.726585,0.343468,-0.354071,122.857436,57.464977,17.356339
22558,NaN,-10.170156,4.304592,-3.497637,-1.013067,0.298156,1.723287,-0.323888,0.925543,0.538563,0.478747,0.728367,0.344303,-0.348910,123.110222,56.922896,17.870610
22559,NaN,-9.610876,4.432063,-3.684416,-0.670989,0.478528,1.363500,-0.220691,0.594370,0.523070,0.479391,0.729772,0.344212,-0.345159,123.175992,56.491037,18.094033
22560,NaN,-8.889951,4.726669,-3.743061,-0.111591,0.540344,0.914766,-0.166854,0.430494,0.529663,0.480119,0.731027,0.343608,-0.342081,123.149896,56.107520,18.170237
22561,NaN,-8.538622,4.916211,-3.439280,0.111598,0.242702,0.619670,-0.186863,0.382797,0.539302,0.481019,0.732158,0.342882,-0.339113,123.072367,55.734168,18.199290
22562,NaN,-8.599651,4.777923,-3.041730,-0.168482,-0.110559,0.482635,-0.220627,0.358902,0.540617,0.482074,0.733163,0.342150,-0.336170,122.960007,55.367848,18.208924
22563,NaN,-8.534059,4.579072,-2.757124,-0.409452,-0.315136,0.243776,-0.216959,0.347250,0.560701,0.483170,0.734181,0.341304,-0.333221,122.832421,54.995325,18.198277
22564,NaN,-8.160168,4.631774,-2.490741,-0.270878,-0.522946,-0.122578,-0.220544,0.371262,0.595726,0.484285,0.735283,0.340391,-0.330092,122.706342,54.598649,18.191151
22565,NaN,-7.715167,4.650913,-2.331331,-0.103675,-0.608378,-0.527830,-0.248951,0.440367,0.647599,0.485471,0.736506,0.339495,-0.326527,122.588120,54.155417,18.214499
22566,NaN,-7.327196,4.614774,-2.307951,0.007707,-0.562805,-0.868790,-0.286049,0.537623,0.667980,0.486647,0.737821,0.338815,-0.322488,122.506488,53.672550,18.308735
22567,NaN,-7.118945,4.585736,-2.409979,0.042310,-0.438562,-1.019411,-0.314177,0.630208,0.680938,0.487786,0.739221,0.338350,-0.318020,122.461673,53.154837,18.470378
22568,NaN,-6.978901,4.609959,-2.534956,0.080648,-0.325506,-1.079435,-0.316517,0.710892,0.739130,0.488871,0.740825,0.337863,-0.313101,122.442552,52.584391,18.666202
22569,NaN,-7.113648,4.671191,-2.940642,0.021458,-0.016059,-0.808802,-0.309179,0.709956,0.775986,0.489981,0.742483,0.337215,-0.308097,122.408187,51.996315,18.839890
22570,NaN,-7.241835,5.086648,-3.219916,0.222793,0.071529,-0.398315,-0.261269,0.679374,0.848182,0.491055,0.744314,0.336141,-0.303103,122.353457,51.382922,18.953134
22571,NaN,-7.484745,5.453751,-3.706446,0.331155,0.347043,0.150821,-0.269974,0.577831,0.868348,0.492354,0.745979,0.334744,-0.298412,122.223185,50.790801,18.977625
22572,NaN,-8.036545,5.780956,-4.340530,0.230142,0.718685,0.970415,-0.310205,0.412435,0.848305,0.494030,0.747248,0.333068,-0.294314,121.983051,50.258978,18.888877
22573,NaN,-8.991486,6.158259,-4.776434,-0.108225,0.826523,2.056998,-0.316432,0.145596,0.865566,0.496196,0.748117,0.330668,-0.291151,121.581570,49.798787,18.594581
22574,NaN,-9.436017,6.493379,-5.238149,-0.168629,1.108621,2.732514,-0.317705,-0.228632,0.828758,0.498914,0.748366,0.327475,-0.289473,120.985807,49.466511,18.043551
22575,NaN,-8.908695,6.858547,-5.476487,0.388824,1.405372,2.607827,-0.332223,-0.561175,0.687091,0.502021,0.747846,0.323994,-0.289361,120.245782,49.296786,17.312300
22576,NaN,-7.834545,7.063289,-5.169208,1.134026,1.353236,1.800790,-0.362318,-0.629948,0.491484,0.505053,0.746821,0.321110,-0.289944,119.519686,49.237999,16.619990
22577,NaN,-7.225132,6.901693,-4.601637,1.298896,1.054426,1.059828,-0.384388,-0.436489,0.305249,0.507585,0.745709,0.319436,-0.290233,118.953978,49.212828,16.156606
22578,NaN,-7.185089,6.584331,-3.919127,0.984195,0.558061,0.630409,-0.352346,-0.129444,0.163553,0.509292,0.744895,0.319022,-0.289789,118.632262,49.172000,15.990213
22579,NaN,-7.409022,6.258864,-3.350678,0.514564,0.094748,0.435251,-0.293017,0.135899,0.081802,0.510241,0.744481,0.319500,-0.288655,118.524071,49.098840,16.061916
22580,NaN,-7.675055,6.114059,-2.952110,0.178604,-0.286607,0.428849,-0.250469,0.252036,0.056795,0.510803,0.744304,0.320306,-0.287223,118.516568,49.006879,16.233894
22581,NaN,-7.825851,6.121080,-2.728649,0.050725,-0.529054,0.476851,-0.242596,0.213414,0.087906,0.511446,0.744136,0.320884,-0.285864,118.479932,48.909505,16.362377
22582,NaN,-7.895996,6.100911,-2.702246,-0.029723,-0.553397,0.510239,-0.308291,0.049933,0.152332,0.512680,0.743671,0.320899,-0.284845,118.292256,48.824702,16.339614
22583,NaN,-7.763591,5.895273,-2.693130,-0.125927,-0.454632,0.289680,-0.380469,-0.161277,0.215806,0.514617,0.742816,0.320236,-0.284329,117.921073,48.764411,16.128789
22584,NaN,-7.803850,5.768853,-2.579834,-0.278218,-0.487085,0.213294,-0.432617,-0.393263,0.215837,0.517108,0.741494,0.319050,-0.284592,117.387585,48.765053,15.740864
22585,NaN,-8.272974,6.085736,-2.628672,-0.342232,-0.534517,0.769595,-0.486716,-0.644036,0.205890,0.520186,0.739647,0.317323,-0.285717,116.678293,48.832954,15.161623
22586,NaN,-9.216208,6.395249,-2.574001,-0.721487,-0.721309,1.651211,-0.555572,-0.949827,0.273728,0.524081,0.737277,0.314643,-0.287683,115.728583,48.938171,14.315470
22587,NaN,-9.782342,6.305261,-2.034649,-1.216427,-1.150303,1.882809,-0.617528,-1.406938,0.375767,0.529053,0.734209,0.310460,-0.290954,114.435399,49.090210,13.063972
22588,NaN,-9.856121,5.883574,-1.695604,-1.631733,-1.176609,1.614615,-0.554267,-1.948916,0.419493,0.534646,0.730529,0.304568,-0.296174,112.827786,49.323324,11.351990
22589,NaN,-9.821658,5.960310,-1.414680,-1.587743,-1.209899,1.589089,-0.431049,-2.488661,0.470538,0.540620,0.726355,0.296820,-0.303375,110.921305,49.609808,9.161617
22590,NaN,-9.351350,6.123181,-1.360824,-1.167122,-0.962842,1.345081,-0.401301,-2.980850,0.482092,0.547120,0.721391,0.287599,-0.312317,108.687555,49.934377,6.529260
22591,NaN,-8.278342,6.218978,-1.623634,-0.356629,-0.349427,0.655645,-0.372831,-3.301833,0.489604,0.553857,0.715825,0.277351,-0.322356,106.220598,50.239687,3.584860
22592,NaN,-7.336152,6.433375,-1.906564,0.481868,0.202050,0.115193,-0.357982,-3.449702,0.450997,0.560514,0.709801,0.266729,-0.332959,103.634478,50.504983,0.485874
22593,NaN,-6.544812,6.241631,-2.184327,0.937759,0.782211,-0.589498,-0.362349,-3.408886,0.336911,0.566780,0.703464,0.256550,-0.343628,101.055948,50.739364,-2.587938
22594,NaN,-5.935443,6.052288,-2.359744,1.277985,1.203079,-1.190425,-0.340994,-3.179804,0.185775,0.572254,0.697196,0.247448,-0.353854,98.638840,50.951860,-5.460646
22595,NaN,-5.865857,6.406857,-2.308783,1.648188,1.261360,-1.067642,-0.362969,-2.766052,0.013692,0.576866,0.691224,0.240108,-0.363021,96.489471,51.157863,-7.963608
22596,NaN,-6.679990,6.831419,-1.518184,1.357657,0.645952,-0.255914,-0.469287,-2.286840,-0.161820,0.580848,0.685492,0.234913,-0.370852,94.610517,51.382567,-10.035246
22597,NaN,-7.433260,6.516677,-0.484483,0.486838,-0.038938,0.072350,-0.532636,-1.907735,-0.248564,0.584380,0.680094,0.231203,-0.377515,92.949922,51.601684,-11.774314
22598,NaN,-7.666463,6.435953,-0.013593,0.237368,-0.294180,0.189879,-0.520104,-1.617185,-0.261371,0.587452,0.675210,0.228345,-0.383212,91.491488,51.792850,-13.260794
22599,NaN,-7.419537,6.516874,0.015176,0.499740,-0.241132,0.046830,-0.482253,-1.324725,-0.217479,0.590116,0.671002,0.226107,-0.387809,90.254242,51.933809,-14.489504
22600,NaN,-7.023973,6.419596,-0.199966,0.764927,0.030883,-0.325829,-0.459001,-0.999887,-0.176865,0.592382,0.667514,0.224641,-0.391209,89.262000,52.038276,-15.422857
22601,NaN,-6.677571,6.221421,-0.357298,0.897186,0.242752,-0.726468,-0.429824,-0.649478,-0.159177,0.594186,0.664800,0.224086,-0.393409,88.538912,52.127001,-16.034270
22602,NaN,-6.346134,6.113975,-0.107359,0.974405,0.017831,-1.053939,-0.393410,-0.344929,-0.127632,0.595575,0.662823,0.224263,-0.394541,88.060383,52.199740,-16.362505
22603,NaN,-6.505108,5.912421,0.066121,0.703526,-0.048823,-1.050262,-0.311580,-0.242119,-0.127884,0.596581,0.661286,0.224578,-0.395420,87.702371,52.272419,-16.596573
22604,NaN,-7.473728,6.099528,0.420129,0.214091,-0.222289,-0.161681,-0.230240,-0.430276,-0.187911,0.597400,0.659551,0.224373,-0.397193,87.249272,52.374606,-17.010089
22605,NaN,-8.626942,6.475703,0.573734,-0.173538,-0.176652,0.986669,-0.159485,-0.856833,-0.195392,0.598449,0.657161,0.222771,-0.400465,86.515815,52.464201,-17.827293
22606,NaN,-9.184329,6.668906,0.612344,-0.316017,-0.043203,1.549438,-0.069828,-1.427459,-0.098547,0.600004,0.653983,0.218960,-0.405411,85.412358,52.468397,-19.176023
22607,NaN,-8.968923,6.631942,0.228769,-0.074830,0.435948,1.335340,0.077523,-1.951297,0.004788,0.601823,0.650248,0.212920,-0.411888,84.013113,52.367036,-21.004705
22608,NaN,-8.062145,6.845390,-0.244215,0.784996,0.812070,0.705830,0.197363,-2.232538,0.043388,0.603558,0.646266,0.205643,-0.419249,82.490725,52.197362,-23.079853
22609,NaN,-7.193672,6.785341,-0.384199,1.315401,0.891713,-0.044864,0.292701,-2.193328,0.037717,0.604864,0.642565,0.198271,-0.426542,81.067121,52.000493,-25.103618
22610,NaN,-6.952682,6.609458,-0.284666,1.324158,0.885513,-0.348695,0.385582,-2.005452,0.042456,0.605620,0.639480,0.191238,-0.433265,79.851257,51.791261,-26.937230
22611,NaN,-6.993258,6.609670,-0.065523,1.261336,0.786830,-0.305483,0.471689,-1.727731,0.084558,0.605876,0.637237,0.184700,-0.439009,78.904223,51.565211,-28.496128
22612,NaN,-6.733653,6.641514,0.248040,1.338344,0.480407,-0.459019,0.555485,-1.354662,0.090108,0.605486,0.636029,0.179084,-0.443601,78.282892,51.366247,-29.705097
22613,NaN,-5.931531,6.436447,0.226835,1.618885,0.330261,-1.214290,0.586645,-0.832567,0.259288,0.604886,0.636199,0.174428,-0.446025,78.077800,51.127056,-30.406582
22614,NaN,-5.741562,6.426087,-0.029238,1.776629,0.512552,-1.395936,0.622205,-0.247228,0.386581,0.603927,0.637880,0.171061,-0.446228,78.321910,50.886411,-30.559042
22615,NaN,-5.819960,6.195733,-0.308864,1.615507,0.819204,-1.501663,0.676457,0.244748,0.426603,0.602459,0.640846,0.168920,-0.444775,78.939790,50.678288,-30.269404
22616,NaN,-6.941566,6.265790,-0.330112,1.006674,1.133267,-0.579260,0.703319,0.466930,0.375513,0.600586,0.644332,0.167557,-0.442783,79.714438,50.521589,-29.796321
22617,NaN,-8.494467,6.281011,-0.015665,-0.013169,1.269953,0.675104,0.705081,0.417284,0.288484,0.598551,0.647627,0.166311,-0.441199,80.441348,50.403841,-29.385329
22618,NaN,-9.433341,6.140695,0.718018,-0.966496,0.864744,1.391299,0.681694,0.201267,0.257926,0.596687,0.650339,0.164573,-0.440386,81.001248,50.281832,-29.173334
22619,NaN,-9.014449,5.996398,0.987689,-0.988277,0.488293,1.002918,0.640838,-0.079162,0.262512,0.595195,0.652308,0.162064,-0.440424,81.345625,50.130207,-29.210812
22620,NaN,-8.064328,5.750697,0.849288,-0.621976,0.364477,0.102221,0.634624,-0.217481,0.226383,0.593742,0.653915,0.159280,-0.441017,81.588448,49.988720,-29.376321
22621,NaN,-7.393092,5.580035,0.635535,-0.314332,0.379810,-0.541474,0.618105,-0.195217,0.109171,0.592065,0.655422,0.156973,-0.441861,81.825044,49.914715,-29.537731
22622,NaN,-7.185019,5.409775,0.460577,-0.267561,0.498037,-0.824772,0.566727,-0.092178,-0.025826,0.590166,0.656891,0.155533,-0.442728,82.088606,49.927271,-29.625631
22623,NaN,-7.515168,5.227648,0.733599,-0.697890,0.373479,-0.662954,0.531806,0.001358,-0.162648,0.588007,0.658353,0.154886,-0.443655,82.382714,50.023773,-29.647334
22624,NaN,-8.274199,5.107964,1.096038,-1.348184,0.283753,-0.124718,0.547649,-0.040739,-0.292267,0.585530,0.659661,0.154514,-0.445115,82.646213,50.192076,-29.720828
22625,NaN,-9.535577,4.915512,1.111589,-2.174251,0.696312,0.728318,0.676441,-0.308846,-0.404597,0.582582,0.660654,0.153431,-0.447876,82.790476,50.403729,-30.044896
22626,NaN,-11.251055,5.297622,0.952021,-2.723916,1.290656,2.289845,0.836833,-0.926334,-0.562957,0.579199,0.660588,0.150715,-0.453252,82.584208,50.661428,-30.941081
22627,NaN,-12.021088,5.478429,0.780837,-2.830491,1.715317,3.000306,0.954531,-1.746833,-0.719983,0.575647,0.658832,0.145857,-0.461840,81.850095,50.938909,-32.601879
22628,NaN,-10.795821,6.737370,1.000054,-1.214109,0.856267,2.865285,0.988073,-2.425604,-0.821897,0.572153,0.655431,0.139288,-0.472916,80.630223,51.197986,-34.905571
22629,NaN,-6.516373,6.878822,2.702244,0.413968,-2.103515,-0.195717,0.924636,-2.722819,-0.728932,0.569181,0.651076,0.131680,-0.484555,79.156705,51.339758,-37.481278
22630,NaN,-4.837124,5.919355,2.685000,0.609364,-2.329498,-2.076597,0.943042,-3.016627,-0.807942,0.566007,0.645850,0.123421,-0.497274,77.462430,51.448027,-40.348455
22631,NaN,-4.614048,5.578699,2.668239,0.521169,-2.213762,-2.439914,0.934502,-2.967569,-1.012616,0.562175,0.640423,0.115945,-0.510269,75.749151,51.622665,-43.227953
22632,NaN,-5.245878,5.029705,2.659557,-0.098775,-1.676975,-2.258380,0.964658,-2.731286,-1.112549,0.557705,0.635462,0.109352,-0.522681,74.178756,51.837339,-45.939828
22633,NaN,-6.609649,4.455984,2.387547,-0.866533,-0.565041,-1.556056,1.017376,-2.550741,-1.178435,0.552673,0.630935,0.103301,-0.534605,72.727965,52.072194,-48.529774
22634,NaN,-8.815668,4.500030,1.773807,-1.249832,1.026934,0.111650,1.079273,-2.638299,-1.251941,0.547159,0.626159,0.097058,-0.546920,71.210308,52.291261,-51.241348
22635,NaN,-12.405171,4.614789,0.763150,-1.708057,3.637759,2.820795,1.050501,-3.052481,-1.345501,0.541535,0.619954,0.090020,-0.560618,69.341816,52.430420,-54.368474
22636,NaN,-13.454143,4.902836,1.290999,-1.837827,3.856723,3.914973,0.925848,-3.592946,-1.207043,0.536737,0.611746,0.081415,-0.575371,67.060806,52.312659,-57.925751
22637,NaN,-10.628119,5.369433,2.619830,-1.076422,1.473918,2.241663,0.944846,-4.046396,-0.976096,0.532507,0.602123,0.070792,-0.590654,64.592812,51.877009,-61.747166
22638,NaN,-7.436899,5.670460,3.722891,-0.416482,-0.931925,0.200945,0.968815,-4.218562,-0.742454,0.528703,0.591853,0.058909,-0.605568,62.189240,51.178729,-65.533526
22639,NaN,-5.141935,5.899864,3.793620,0.405803,-2.186570,-1.404909,0.884069,-3.931042,-0.612382,0.525224,0.582003,0.047626,-0.618986,60.071870,50.401731,-68.927618
22640,NaN,-3.838352,5.951382,3.480433,1.004827,-2.638874,-2.444453,0.670082,-3.210096,-0.541834,0.522228,0.573637,0.038681,-0.629859,58.379271,49.731256,-71.643452
22641,NaN,-3.167829,5.892543,3.211957,1.316071,-2.769828,-3.054765,0.368803,-2.263951,-0.502387,0.519933,0.567351,0.033028,-0.637723,57.127538,49.285629,-73.575415
22642,NaN,-2.805284,5.699928,3.364301,1.169090,-2.965710,-3.369472,0.073912,-1.170992,-0.432674,0.518466,0.563745,0.030962,-0.642204,56.363340,49.128861,-74.648811
22643,NaN,-3.486983,5.470180,3.780898,0.624747,-2.684449,-2.828385,-0.158181,-0.075834,-0.338652,0.517780,0.563056,0.032206,-0.643299,56.107801,49.268774,-74.874974
22644,NaN,-5.149677,5.060486,4.001277,-0.085001,-1.618940,-1.718896,-0.270669,0.794312,-0.227184,0.517618,0.564886,0.035759,-0.641636,56.311268,49.633867,-74.411149
22645,NaN,-7.103866,4.787941,3.720845,-0.436423,-0.171308,-0.484591,-0.262121,1.265324,-0.163649,0.517542,0.568243,0.040314,-0.638455,56.819332,50.114180,-73.558445
22646,NaN,-8.871625,4.581924,3.224446,-0.598706,1.229246,0.590497,-0.192503,1.221826,-0.192330,0.517158,0.571613,0.044623,-0.635464,57.346936,50.590987,-72.737931
22647,NaN,-10.074034,4.475512,2.642962,-0.532389,2.291470,1.276352,-0.144454,0.718717,-0.324807,0.516320,0.573463,0.047848,-0.634243,57.568431,50.972080,-72.353214
22648,NaN,-10.504145,4.357151,2.233390,-0.401855,2.812500,1.422876,-0.157169,0.011062,-0.520700,0.515054,0.572982,0.049855,-0.635551,57.286809,51.230798,-72.607215
22649,NaN,-10.422236,3.989652,2.235139,-0.570309,2.915961,1.173992,-0.133266,-0.657154,-0.714805,0.513267,0.570383,0.050614,-0.639264,56.539066,51.371243,-73.475489
22650,NaN,-9.996647,3.824744,2.344992,-0.558222,2.686243,0.795382,-0.065695,-1.220225,-0.871674,0.510902,0.566094,0.050164,-0.644981,55.426760,51.397867,-74.858672
22651,NaN,-9.052897,3.461152,2.563139,-0.657669,2.194736,-0.052955,-0.021881,-1.598781,-0.968113,0.508163,0.560632,0.048869,-0.651977,54.079264,51.325136,-76.575800
22652,NaN,-8.031120,3.128721,2.805325,-0.756872,1.635760,-0.929732,0.048247,-1.744148,-1.023855,0.505030,0.554806,0.047133,-0.659480,52.671264,51.203339,-78.424042
22653,NaN,-7.177186,3.005608,3.017279,-0.742822,1.093709,-1.572539,0.134838,-1.706108,-1.039067,0.501548,0.549266,0.045241,-0.666866,51.338855,51.073628,-80.242533
22654,NaN,-6.560391,2.901858,3.247440,-0.792517,0.666715,-2.006809,0.228299,-1.515563,-1.020410,0.497779,0.544547,0.043464,-0.673644,50.181493,50.980517,-81.907276
22655,NaN,-6.199463,2.806562,3.397376,-0.839053,0.430752,-2.265362,0.333470,-1.250632,-0.990197,0.493732,0.540948,0.041902,-0.679594,49.246936,50.952784,-83.364546
22656,NaN,-6.217049,2.859449,3.704587,-0.943053,0.251385,-2.092634,0.445098,-0.978733,-0.942921,0.489455,0.538525,0.040507,-0.684677,48.542665,50.994414,-84.607234
22657,NaN,-6.483705,2.870505,3.914973,-1.041758,0.298186,-1.785803,0.551379,-0.769483,-0.882302,0.485037,0.537067,0.039090,-0.689036,48.036572,51.081197,-85.672557
22658,NaN,-6.681623,2.941821,4.098460,-1.086381,0.281203,-1.515919,0.659259,-0.653368,-0.822862,0.480488,0.536259,0.037426,-0.692934,47.677539,51.182729,-86.626669
22659,NaN,-6.578283,3.127274,4.300747,-1.062971,0.002614,-1.421019,0.764954,-0.630912,-0.807766,0.475687,0.535764,0.035405,-0.696725,47.395402,51.282832,-87.558732
22660,NaN,-6.657197,3.482942,4.523269,-0.948785,-0.265746,-1.098432,0.808456,-0.683804,-0.813712,0.470735,0.535163,0.033124,-0.700651,47.103920,51.362324,-88.533269
22661,NaN,-6.756283,3.993098,4.715996,-0.708454,-0.590851,-0.703257,0.780887,-0.761690,-0.813547,0.465851,0.534200,0.030751,-0.704746,46.754181,51.407479,-89.561492
22662,NaN,-7.302082,4.222837,4.969553,-0.701039,-0.508742,-0.060828,0.713381,-0.930250,-0.806094,0.461174,0.532461,0.028205,-0.709231,46.280536,51.378844,-90.698467
22663,NaN,-8.077739,4.630190,5.440057,-0.700086,-0.479418,0.937296,0.619567,-1.283840,-0.785968,0.456843,0.529222,0.025117,-0.714554,45.585781,51.193359,-92.051767
22664,NaN,-8.310256,4.823078,5.819501,-0.744863,-0.578714,1.380948,0.512298,-1.815759,-0.788069,0.452813,0.523792,0.021205,-0.721216,44.576377,50.781350,-93.736439
22665,NaN,-8.393395,5.117763,6.005336,-0.536131,-0.684536,1.674034,0.406505,-2.417929,-0.783497,0.449082,0.515880,0.016293,-0.729334,43.255022,50.096996,-95.760417
22666,NaN,-7.626783,5.352135,6.037051,-0.274307,-1.183043,1.222675,0.306402,-2.889569,-0.752384,0.445670,0.505926,0.010607,-0.738448,41.740878,49.170065,-97.985955
22667,NaN,-6.518132,5.292951,6.084243,-0.266738,-1.723279,0.408537,0.226333,-3.132129,-0.700044,0.442562,0.494776,0.004537,-0.747874,40.191487,48.079782,-100.231582
22668,NaN,-5.592624,5.334684,5.849043,-0.007197,-2.092700,-0.348860,0.155143,-3.096172,-0.645740,0.439715,0.483479,-0.001319,-0.756899,38.737670,46.947639,-102.331645
22669,NaN,-4.644914,5.062272,5.758407,-0.118168,-2.382104,-1.171507,0.083204,-2.748984,-0.595857,0.437139,0.473227,-0.006264,-0.764805,37.481866,45.920541,-104.139049
22670,NaN,-4.565054,4.889401,5.842554,-0.191147,-2.254317,-1.224258,0.017246,-2.234000,-0.548001,0.434841,0.464721,-0.009939,-0.771264,36.453640,45.088794,-105.602878
22671,NaN,-4.555412,4.642039,5.756311,-0.197971,-1.993401,-1.361557,-0.012842,-1.664869,-0.482470,0.432854,0.458291,-0.012418,-0.776178,35.668528,44.481599,-106.715810
22672,NaN,-4.535260,4.463047,5.510722,-0.072202,-1.751329,-1.579665,0.002581,-1.118935,-0.395003,0.431176,0.453984,-0.013969,-0.779609,35.128683,44.092123,-107.499805
22673,NaN,-4.739331,4.305159,5.235773,0.111305,-1.382171,-1.658789,0.057307,-0.693026,-0.310392,0.429728,0.451435,-0.015015,-0.781866,34.802846,43.869611,-108.025390
22674,NaN,-5.064636,4.164101,5.091216,0.220265,-1.002480,-1.575137,0.162290,-0.442027,-0.249300,0.428290,0.450087,-0.016061,-0.783410,34.645770,43.744777,-108.395452
22675,NaN,-5.490161,4.324981,5.098380,0.430453,-0.803236,-1.209763,0.283782,-0.419893,-0.232062,0.426651,0.449077,-0.017583,-0.784850,34.575049,43.623135,-108.742445
22676,NaN,-5.936267,4.509525,5.347661,0.484330,-0.684057,-0.676497,0.417215,-0.569983,-0.204090,0.424798,0.447758,-0.020004,-0.786549,34.547667,43.422472,-109.138203
22677,NaN,-6.721957,4.887508,5.668170,0.698087,-0.458510,0.212420,0.570787,-0.842151,-0.137091,0.422836,0.445677,-0.023764,-0.788681,34.558339,43.070406,-109.609298
22678,NaN,-7.142278,5.343133,5.775536,1.036445,-0.431156,0.754115,0.714876,-1.132115,-0.054639,0.420821,0.442734,-0.028880,-0.791241,34.604080,42.556065,-110.153669
22679,NaN,-7.078757,5.651072,5.661986,1.323616,-0.545065,0.772752,0.837843,-1.375882,0.010220,0.418739,0.439048,-0.035147,-0.794140,34.683931,41.904971,-110.758759
22680,NaN,-6.887998,5.925438,5.600727,1.516716,-0.729418,0.727231,0.930348,-1.519765,0.054665,0.416567,0.434948,-0.042168,-0.797191,34.801469,41.173554,-111.394559
22681,NaN,-6.598074,6.155652,5.556314,1.635262,-0.955534,0.613770,0.973095,-1.544630,0.079541,0.414370,0.430795,-0.049472,-0.800166,34.957138,40.422282,-112.019776
22682,NaN,-6.096919,6.238716,5.389481,1.679663,-1.209197,0.230031,0.962798,-1.446620,0.065948,0.412124,0.426984,-0.056489,-0.802900,35.135970,39.723999,-112.608376
22683,NaN,-5.545312,6.161395,5.290212,1.547106,-1.430968,-0.207595,0.903933,-1.276242,0.022995,0.409858,0.423717,-0.062834,-0.805315,35.319148,39.119908,-113.146232
22684,NaN,-5.166999,6.077389,5.431016,1.275652,-1.604783,-0.382657,0.846034,-1.097480,-0.090619,0.407283,0.421064,-0.068324,-0.807563,35.477846,38.639433,-113.675401
22685,NaN,-5.236574,5.896450,5.580958,1.073337,-1.412179,-0.315825,0.772634,-0.922186,-0.205508,0.404449,0.418990,-0.072928,-0.809660,35.604038,38.278738,-114.195496
22686,NaN,-5.304865,5.738622,5.912140,0.750922,-1.288709,-0.127544,0.715193,-0.761082,-0.304061,0.401374,0.417475,-0.076753,-0.811617,35.704812,38.028006,-114.705573
22687,NaN,-5.470422,5.524178,6.255966,0.417062,-1.066688,0.100301,0.684496,-0.651082,-0.368197,0.398141,0.416357,-0.080110,-0.813457,35.797454,37.849273,-115.204345
22688,NaN,-5.848488,5.264510,6.506145,0.199422,-0.644066,0.375302,0.695980,-0.603429,-0.380605,0.394835,0.415450,-0.083377,-0.815202,35.904278,37.698819,-115.690921
22689,NaN,-6.088636,5.318851,6.830115,0.063835,-0.539947,0.756911,0.713351,-0.615561,-0.359374,0.391572,0.414508,-0.086796,-0.816897,36.028959,37.535032,-116.168034
22690,NaN,-6.382948,5.565418,7.174412,0.043886,-0.519974,1.274043,0.718028,-0.690787,-0.284177,0.388556,0.413224,-0.090520,-0.818582,36.163264,37.313232,-116.634050
22691,NaN,-7.106891,5.823622,7.464290,0.238029,-0.173106,2.021629,0.664392,-0.916288,-0.201256,0.385884,0.410863,-0.094646,-0.820565,36.242781,36.958440,-117.144869
22692,NaN,-5.883988,6.007748,7.909561,-0.418538,-1.161819,1.665544,0.577187,-0.974414,-0.002466,0.384158,0.407988,-0.098916,-0.822304,36.328167,36.511348,-117.565235
22693,NaN,-5.128884,6.163598,7.799874,-0.518967,-1.702394,1.231104,0.504094,-0.776598,0.177749,0.383418,0.405686,-0.102888,-0.823301,36.487492,36.093502,-117.796274
22694,NaN,-5.333371,6.505577,7.717065,-0.193265,-1.707932,1.472959,0.325688,-0.351568,0.240460,0.383502,0.404752,-0.105419,-0.823401,36.669512,35.851773,-117.814479
22695,NaN,-6.458940,6.337271,7.388356,0.374315,-0.698402,1.842301,0.133273,0.010818,0.261768,0.384262,0.404928,-0.106523,-0.822818,36.839683,35.767563,-117.666666
22696,NaN,-6.776752,6.347897,6.980528,0.786254,-0.403934,1.770341,-0.086166,0.309909,0.324206,0.385871,0.405879,-0.106258,-0.821629,36.976510,35.800154,-117.358682
22697,NaN,-6.744704,6.123520,6.552090,0.953337,-0.215689,1.365998,-0.283041,0.460734,0.299743,0.387867,0.407079,-0.104861,-0.820274,37.032797,35.908147,-116.998310
22698,NaN,-6.425041,5.625007,6.372188,0.682174,-0.099799,0.819869,-0.430699,0.561920,0.268009,0.390072,0.408420,-0.102579,-0.818849,37.018129,36.074894,-116.613745
22699,NaN,-5.990514,5.220302,5.912719,0.630333,-0.101482,0.071153,-0.487128,0.723136,0.212990,0.392253,0.410332,-0.099655,-0.817211,36.997480,36.332840,-116.188748
22700,NaN,-6.191529,4.708496,5.741153,0.517995,0.369558,-0.165897,-0.493236,0.987502,0.155913,0.394326,0.413331,-0.096050,-0.815131,37.022217,36.733049,-115.682720
22701,NaN,-7.578513,4.409802,5.587109,0.901440,1.539491,0.430007,-0.437750,1.057226,0.088443,0.396039,0.416742,-0.092410,-0.812982,37.080986,37.186501,-115.180192
22702,NaN,-7.366270,4.293673,5.730945,0.599852,1.379334,0.349909,-0.323114,0.997090,0.119627,0.397591,0.420110,-0.089399,-0.810825,37.203348,37.602703,-114.683927
22703,NaN,-6.828583,4.230424,5.647880,0.394264,1.002032,-0.052323,-0.163057,0.836654,0.109162,0.398693,0.423141,-0.087349,-0.808929,37.377975,37.946874,-114.258449
22704,NaN,-6.485404,4.312274,5.791757,0.172571,0.637382,-0.129489,0.007785,0.644317,0.090607,0.399260,0.425735,-0.086315,-0.807397,37.592690,38.210435,-113.927443
22705,NaN,-6.093896,4.494208,5.817243,0.089132,0.209868,-0.266921,0.162140,0.417562,0.078886,0.399359,0.427726,-0.086348,-0.806292,37.833707,38.372842,-113.700363
22706,NaN,-5.787542,4.705566,5.895531,0.018134,-0.170948,-0.306602,0.291152,0.156683,0.052369,0.398951,0.428931,-0.087349,-0.805746,38.064961,38.427440,-113.606462
22707,NaN,-5.879062,4.925180,5.895388,0.147196,-0.240155,-0.143304,0.340294,-0.122442,0.026647,0.398221,0.429120,-0.089066,-0.805819,38.239459,38.363665,-113.651358
22708,NaN,-6.033020,5.028017,5.933480,0.213822,-0.179743,0.026334,0.377779,-0.365865,0.035248,0.397325,0.428396,-0.091419,-0.806382,38.367844,38.188938,-113.803388
22709,NaN,-5.463709,5.242979,6.047208,0.064530,-0.714859,-0.148614,0.370081,-0.472267,0.117820,0.396735,0.427188,-0.094146,-0.806999,38.494045,37.935851,-113.954700
22710,NaN,-4.740167,5.049249,6.195539,-0.391563,-1.091432,-0.592920,0.324285,-0.381953,0.161284,0.396449,0.426228,-0.096584,-0.807360,38.632064,37.709443,-114.042582
22711,NaN,-4.960931,4.768198,6.165643,-0.463952,-0.703105,-0.612036,0.309058,-0.171354,0.155507,0.396281,0.426089,-0.098548,-0.807278,38.819935,37.577883,-114.037153
22712,NaN,-5.588694,4.737614,6.261510,-0.372393,-0.221492,-0.184751,0.290975,0.050868,0.163371,0.396282,0.426806,-0.099997,-0.806721,39.058807,37.544072,-113.928809
22713,NaN,-6.243756,4.677426,6.300359,-0.255819,0.301755,0.207328,0.249955,0.187562,0.183410,0.396528,0.427981,-0.101071,-0.805843,39.321398,37.561700,-113.745186
22714,NaN,-6.497930,4.582515,6.278754,-0.246936,0.562689,0.300055,0.211362,0.267376,0.210835,0.396997,0.429386,-0.101871,-0.804763,39.591307,37.605615,-113.511223
22715,NaN,-6.489729,4.577358,6.166007,-0.205767,0.586664,0.222340,0.192921,0.337272,0.229371,0.397623,0.431024,-0.102516,-0.803496,39.879539,37.671010,-113.232395
22716,NaN,-6.447302,4.515359,6.086064,-0.235658,0.614099,0.115228,0.187887,0.410036,0.244053,0.398344,0.432934,-0.103008,-0.802047,40.188955,37.763393,-112.912574
22717,NaN,-6.481247,4.500416,6.032445,-0.242108,0.658202,0.094815,0.211449,0.487117,0.241586,0.399050,0.435199,-0.103453,-0.800411,40.536747,37.887291,-112.555037
22718,NaN,-6.469994,4.550227,6.051645,-0.290378,0.610646,0.123624,0.266279,0.538687,0.242543,0.399655,0.437774,-0.103998,-0.798633,40.930679,38.032999,-112.172580
22719,NaN,-6.419008,4.754909,5.829054,-0.081467,0.475862,0.064421,0.316817,0.538707,0.204711,0.400003,0.440466,-0.104678,-0.796888,41.345104,38.189270,-111.807090
22720,NaN,-6.410658,4.970099,5.698269,0.074594,0.347577,0.093978,0.333812,0.497253,0.156146,0.400084,0.443047,-0.105383,-0.795321,41.740295,38.345765,-111.487681
22721,NaN,-6.421944,5.074658,5.586818,0.164824,0.304239,0.091154,0.359773,0.401556,0.113387,0.399894,0.445319,-0.106304,-0.794025,42.110928,38.474600,-111.234662
22722,NaN,-6.379621,5.099590,5.567224,0.130128,0.261131,0.067295,0.416110,0.259750,0.081886,0.399366,0.447154,-0.107645,-0.793078,42.458714,38.555788,-111.068836
22723,NaN,-6.438909,5.112270,5.722323,-0.016668,0.276252,0.200457,0.504384,0.105676,0.069605,0.398515,0.448558,-0.109632,-0.792441,42.808087,38.574468,-110.983687
22724,NaN,-6.336786,5.322288,5.953394,-0.162921,0.041647,0.380251,0.627259,-0.045353,0.085369,0.397356,0.449595,-0.112424,-0.792044,43.183945,38.524822,-110.967071
22725,NaN,-6.054159,5.635989,6.278052,-0.386229,-0.394026,0.556803,0.754062,-0.127133,0.153960,0.396141,0.450517,-0.116050,-0.791606,43.631455,38.412508,-110.953941
22726,NaN,-5.885068,5.733404,6.355287,-0.500466,-0.549069,0.547969,0.824881,-0.165956,0.171747,0.394799,0.451407,-0.120055,-0.791172,44.110206,38.278555,-110.953909
22727,NaN,-5.808890,5.796010,6.336300,-0.535520,-0.591728,0.524050,0.885076,-0.137164,0.202563,0.393461,0.452502,-0.124325,-0.790553,44.643706,38.142449,-110.923015
22728,NaN,-5.575823,5.945609,6.183756,-0.469605,-0.786654,0.377451,0.913589,-0.046514,0.221873,0.392174,0.453989,-0.128554,-0.789663,45.225155,38.036681,-110.838896
22729,NaN,-5.402730,6.120994,6.276829,-0.583687,-0.998497,0.420409,0.891263,0.101817,0.228730,0.391060,0.456003,-0.132433,-0.788413,45.844490,37.985249,-110.674199
22730,NaN,-5.565166,6.126355,6.473028,-0.780766,-0.873879,0.629029,0.840284,0.206682,0.207004,0.390029,0.458336,-0.135837,-0.786990,46.459064,37.984739,-110.467819
22731,NaN,-5.600167,6.074227,6.288646,-0.728550,-0.756046,0.516986,0.808683,0.241334,0.182237,0.388999,0.460751,-0.139007,-0.785535,47.061351,38.004594,-110.253824
22732,NaN,-5.242285,6.257290,5.912919,-0.505664,-1.064467,0.197733,0.763409,0.243954,0.121304,0.387819,0.463123,-0.141834,-0.784217,47.618299,38.051293,-110.069686
22733,NaN,-5.240755,6.388083,5.430874,-0.113683,-1.069509,0.016369,0.661202,0.251297,0.072981,0.386696,0.465351,-0.144150,-0.783029,48.107171,38.118036,-109.902930
22734,NaN,-5.616215,6.369155,4.834747,0.413394,-0.690080,-0.074342,0.583095,0.279943,0.066968,0.385737,0.467542,-0.146070,-0.781841,48.557801,38.199179,-109.724192
22735,NaN,-5.904581,6.185724,4.178035,0.899103,-0.262061,-0.341367,0.533701,0.264728,0.075121,0.384921,0.469564,-0.147864,-0.780693,48.980264,38.267904,-109.547288
22736,NaN,-6.334549,6.223296,3.618640,1.452864,0.111306,-0.334972,0.486950,0.154505,0.070292,0.384100,0.471069,-0.149655,-0.779849,49.335282,38.298571,-109.434453
22737,NaN,-6.556021,6.289526,3.239142,1.827162,0.290461,-0.346503,0.396806,-0.017637,0.071308,0.383376,0.471724,-0.151447,-0.779463,49.582172,38.262164,-109.414695
22738,NaN,-6.545533,6.178662,3.072418,1.896457,0.389998,-0.500817,0.308650,-0.161355,0.072604,0.382744,0.471649,-0.153154,-0.779486,49.727139,38.173891,-109.476095
22739,NaN,-6.398437,5.807301,3.069906,1.683245,0.541558,-0.814774,0.272471,-0.205590,0.065043,0.382142,0.471337,-0.154806,-0.779644,49.836473,38.070720,-109.563963
22740,NaN,-6.419156,5.529797,3.303765,1.356606,0.725818,-0.849883,0.293615,-0.149029,0.042898,0.381437,0.471301,-0.156359,-0.779701,49.968427,38.000224,-109.632754
22741,NaN,-6.700752,5.307204,3.648150,1.026788,1.052651,-0.635917,0.308544,-0.122477,-0.009981,0.380520,0.471439,-0.157816,-0.779772,50.105485,37.961034,-109.709649
22742,NaN,-7.110102,5.406176,4.225883,0.677711,1.232097,-0.032043,0.309856,-0.193031,-0.116367,0.379118,0.471384,-0.159140,-0.780219,50.185931,37.944665,-109.877448
22743,NaN,-7.247489,5.697074,4.874298,0.290319,1.074467,0.555666,0.266596,-0.343171,-0.205906,0.377356,0.470734,-0.160388,-0.781209,50.167352,37.911034,-110.168644
22744,NaN,-6.531747,6.003647,5.408956,-0.214686,0.284247,0.571791,0.216754,-0.408168,-0.334856,0.375144,0.469833,-0.161239,-0.782640,50.058434,37.911598,-110.557970
22745,NaN,-6.062293,6.271649,5.701591,-0.466803,-0.280039,0.593886,0.202632,-0.304565,-0.418168,0.372728,0.469378,-0.161663,-0.783979,49.955410,37.984774,-110.926768
22746,NaN,-5.669932,6.612437,5.657388,-0.390186,-0.812570,0.534580,0.184774,-0.137192,-0.411440,0.370505,0.469534,-0.161701,-0.784931,49.897844,38.117868,-111.201836
22747,NaN,-4.698633,6.714934,5.368195,-0.385619,-1.590869,-0.153217,0.162873,0.064196,-0.332028,0.368815,0.470375,-0.161484,-0.785268,49.922068,38.288795,-111.325930
22748,NaN,-4.321113,6.472936,5.178549,-0.453423,-1.714246,-0.634238,0.097214,0.256511,-0.310901,0.367506,0.471829,-0.160685,-0.785173,49.978480,38.523029,-111.334620
22749,NaN,-4.816406,6.150851,5.101413,-0.409122,-1.161064,-0.563930,0.086134,0.420147,-0.263182,0.366551,0.473866,-0.159674,-0.784599,50.103145,38.794723,-111.226296
22750,NaN,-5.384503,5.925201,4.956589,-0.253157,-0.613881,-0.419736,0.124247,0.472148,-0.176314,0.365876,0.476102,-0.158901,-0.783717,50.292273,39.048832,-111.048297
22751,NaN,-6.177874,5.773047,4.906367,-0.089131,0.044966,-0.037385,0.161613,0.365594,-0.108746,0.365300,0.477935,-0.158651,-0.782920,50.489019,39.231789,-110.895372
